 Choice 1, Choice 1 RT, Choice 2, Choice 2 RT, Choosing For, Computer Response, Decision Rating , Item Option, Money Option, PostChoiceRT, Selected Option Rating, Trial Options,Familiarity,Item,Rating,Trial Type
,,,,,,,,,,,,2.0,..\..\JOCN-master\task a\images\kind bar_peanut butter_bar.jpg,1.0,
,,,,,,,,,,,,1.0,..\..\JOCN-master\task a\images\clif_z_bar.jpg,1.0,
,,,,,,,,,,,,4.0,..\..\JOCN-master\task a\images\fiber one_oats and choc_chewy bar.jpg,2.0,
,,,,,,,,,,,,7.0,..\..\JOCN-master\task a\images\kettle_original.jpg,5.0,
,,,,,,,,,,,,7.0,..\..\JOCN-master\task a\images\nutrigrain_blueberry_bar.jpg,5.0,
,,,,,,,,,,,,7.0,..\..\JOCN-master\task a\images\quaker_chewy_chocolate chip.jpg,6.0,
,,,,,,,,,,,,2.0,..\..\JOCN-master\task a\images\fiber one_lemon_ bar.jpg,3.0,
,,,,,,,,,,,,7.0,..\..\JOCN-master\task a\images\nabisco_chips ahhoy_mini.jpg,4.0,
,,,,,,,,,,,,4.0,..\..\JOCN-master\task a\images\snickers_almond_bar.jpg,2.0,
,,,,,,,,,,,,7.0,..\..\JOCN-master\task a\images\fritos_original_corn chips.jpg,1.0,
,,,,,,,,,,,,7.0,..\..\JOCN-master\task a\images\slim_jim.jpg,6.0,
,,,,,,,,,,,,7.0,..\..\JOCN-master\task a\images\welch's_white_grape_raspberry.jpg,5.0,
,,,,,,,,,,,,7.0,..\..\JOCN-master\task a\images\pringles_the original_potato crisps.jpg,3.0,
,,,,,,,,,,,,7.0,..\..\JOCN-master\task a\images\starburst_orignal_candy.jpg,5.0,
,,,,,,,,,,,,6.0,..\..\JOCN-master\task a\images\poptarts_brown_sugar.jpg,4.0,
,,,,,,,,,,,,7.0,..\..\JOCN-master\task a\images\poptarts_strawberry_frosted.jpg,4.0,
,,,,,,,,,,,,5.0,..\..\JOCN-master\task a\images\baked_ruffles_cheddar &sour.JPG,4.0,
,,,,,,,,,,,,5.0,..\..\JOCN-master\task a\images\emerald_natural_almonds.jpg,1.0,
,,,,,,,,,,,,7.0,..\..\JOCN-master\task a\images\sourpatch_watermelon_candy.jpg,6.0,
,,,,,,,,,,,,1.0,..\..\JOCN-master\task a\images\keebler_vanilla_sugar_wafers.jpg,1.0,
,,,,,,,,,,,,5.0,..\..\JOCN-master\task a\images\lance_choc-o_cookies.jpg,2.0,
,,,,,,,,,,,,4.0,..\..\JOCN-master\task a\images\skittles_wild berry_candy.jpg,5.0,
,,,,,,,,,,,,7.0,..\..\JOCN-master\task a\images\lays_classic_potato chips.jpg,7.0,
,,,,,,,,,,,,4.0,..\..\JOCN-master\task a\images\pirates booty_aged white cheddar_ corn puffs.jpg,1.0,
,,,,,,,,,,,,1.0,..\..\JOCN-master\task a\images\grandmas_oatmeal raisin_cookies.jpg,1.0,
,,,,,,,,,,,,7.0,..\..\JOCN-master\task a\images\cheetos_crunchy_chips.jpg,3.0,
,,,,,,,,,,,,6.0,..\..\JOCN-master\task a\images\special_k_pastry_crisps_strawberry.jpg,5.0,
,,,,,,,,,,,,6.0,..\..\JOCN-master\task a\images\famous_amos_chocolate_chip.jpg,6.0,
,,,,,,,,,,,,7.0,..\..\JOCN-master\task a\images\skinny_pop_popcorn.jpg,4.0,
,,,,,,,,,,,,5.0,..\..\JOCN-master\task a\images\baked_lays_classic.jpg,2.0,
,,,,,,,,,,,,5.0,..\..\JOCN-master\task a\images\pringles_sour cream and onion_potato crisps.jpg,2.0,
,,,,,,,,,,,,4.0,..\..\JOCN-master\task a\images\chips_ahoy_thin_crisps.jpg,2.0,
,,,,,,,,,,,,7.0,..\..\JOCN-master\task a\images\quaker_chewy_dark choc chunk.jpg,7.0,
,,,,,,,,,,,,7.0,..\..\JOCN-master\task a\images\twix_milk chocolate_cookie bars.jpg,7.0,
,,,,,,,,,,,,2.0,..\..\JOCN-master\task a\images\austin_vanilla creme_vanilla cookies.jpg,1.0,
,,,,,,,,,,,,3.0,..\..\JOCN-master\task a\images\popchips_ridges_perfectly_salted.jpg,2.0,
,,,,,,,,,,,,4.0,..\..\JOCN-master\task a\images\austin_peanut_butter.jpg,1.0,
,,,,,,,,,,,,6.0,..\..\JOCN-master\task a\images\planters_honey roasted_peanuts.jpg,1.0,
,,,,,,,,,,,,5.0,..\..\JOCN-master\task a\images\nestle_babyruth_bar.jpg,1.0,
,,,,,,,,,,,,7.0,..\..\JOCN-master\task a\images\skittles_sour_candy.jpg,5.0,
,,,,,,,,,,,,1.0,..\..\JOCN-master\task a\images\keebler_elfin_cookies.jpg,1.0,
,,,,,,,,,,,,6.0,..\..\JOCN-master\task a\images\baked_lays_barbeque.jpg,3.0,
,,,,,,,,,,,,6.0,..\..\JOCN-master\task a\images\fiber one_chocolate fudge_ brownie.jpg,2.0,
,,,,,,,,,,,,1.0,..\..\JOCN-master\task a\images\stonyfield_fruit_snacks.jpg,1.0,
,,,,,,,,,,,,1.0,..\..\JOCN-master\task a\images\grandma's_peanut butter_cookies.jpg,1.0,
,,,,,,,,,,,,5.0,..\..\JOCN-master\task a\images\nabisco_teddy graham_honey.jpg,3.0,
,,,,,,,,,,,,3.0,..\..\JOCN-master\task a\images\sun chips_garden salsa_chips.jpg,1.0,
,,,,,,,,,,,,2.0,..\..\JOCN-master\task a\images\nabisco_nutter butter_cookies and crackers.jpg,1.0,
,,,,,,,,,,,,1.0,..\..\JOCN-master\task a\images\homefree_chocolatechip_minicookies.jpg,1.0,
,,,,,,,,,,,,1.0,..\..\JOCN-master\task a\images\kar's_sweet'n spicy_mix.jpg,1.0,
,,,,,,,,,,,,3.0,..\..\JOCN-master\task a\images\keebler_chips delux_cookies_crackers.jpg,4.0,
,,,,,,,,,,,,1.0,..\..\JOCN-master\task a\images\eatrageous_sea_salt.jpg,1.0,
,,,,,,,,,,,,4.0,..\..\JOCN-master\task a\images\austin_peanut butter_cheese cracker.jpg,1.0,
,,,,,,,,,,,,4.0,..\..\JOCN-master\task a\images\quakers_popped_rice_crisps.jpg,2.0,
,,,,,,,,,,,,7.0,..\..\JOCN-master\task a\images\mini_fudge_stripes.jpg,4.0,
,,,,,,,,,,,,7.0,..\..\JOCN-master\task a\images\special_k_pastry_crisps_blueberry.jpg,4.0,
,,,,,,,,,,,,7.0,..\..\JOCN-master\task a\images\m&m's_peanut.jpg,7.0,
,,,,,,,,,,,,7.0,..\..\JOCN-master\task a\images\cheez itz_original.jpg,7.0,
,,,,,,,,,,,,6.0,..\..\JOCN-master\task a\images\nutrigrain_strawberry_bar.jpg,3.0,
,,,,,,,,,,,,1.0,..\..\JOCN-master\task a\images\cloverhill_cheese_danish.jpg,1.0,
,,,,,,,,,,,,7.0,..\..\JOCN-master\task a\images\planters_salted_cashews.jpg,1.0,
,,,,,,,,,,,,4.0,..\..\JOCN-master\task a\images\lance_toast_cheese_with_pb.JPG,1.0,
,,,,,,,,,,,,1.0,..\..\JOCN-master\task a\images\homefree_doublechocolatechip_minicookies.jpg,1.0,
,,,,,,,,,,,,3.0,..\..\JOCN-master\task a\images\nabisco_nutter butter_bites.jpg,1.0,
,,,,,,,,,,,,1.0,..\..\JOCN-master\task a\images\nature_valley_granola_cups_almond_butter.jpg,1.0,
,,,,,,,,,,,,1.0,..\..\JOCN-master\task a\images\kind_almond_butter.jpg,1.0,
,,,,,,,,,,,,7.0,..\..\JOCN-master\task a\images\planters_salted_peanuts.jpg,1.0,
,,,,,,,,,,,,7.0,..\..\JOCN-master\task a\images\snyders_mini_pretzels.jpg,4.0,
,,,,,,,,,,,,1.0,..\..\JOCN-master\task a\images\eatrageous_wasabi_ranch.jpg,1.0,
,,,,,,,,,,,,3.0,..\..\JOCN-master\task a\images\popchips_barbeque.jpg,1.0,
,,,,,,,,,,,,1.0,..\..\JOCN-master\task a\images\sensible_portions_cinnamon_apple_straws.jpg,1.0,
,,,,,,,,,,,,3.0,..\..\JOCN-master\task a\images\oreo_thin_crisps.jpg,2.0,
,,,,,,,,,,,,3.0,..\..\JOCN-master\task a\images\kettle_jalepeno.jpg,6.0,
,,,,,,,,,,,,7.0,..\..\JOCN-master\task a\images\hersey_milk_chocolate.jpg,7.0,
,,,,,,,,,,,,4.0,..\..\JOCN-master\task a\images\welch's_berry.jpg,3.0,
,,,,,,,,,,,,4.0,..\..\JOCN-master\task a\images\nature_valley_sweet_and_salty.jpg,2.0,
,,,,,,,,,,,,1.0,..\..\JOCN-master\task a\images\annie's_honey_bunny_grahams.jpg,1.0,
,,,,,,,,,,,,1.0,..\..\JOCN-master\task a\images\nature_valley_granola_cups_peanut_butter.jpg,1.0,
,,,,,,,,,,,,1.0,..\..\JOCN-master\task a\images\krave_jerky_sweet_chipotle.jpg,1.0,
,,,,,,,,,,,,3.0,..\..\JOCN-master\task a\images\popchips_sour_cream_and_onion.jpg,2.0,
,,,,,,,,,,,,1.0,..\..\JOCN-master\task a\images\lance_captain_wafers_with_honey_and_pb.JPG,1.0,
,,,,,,,,,,,,6.0,..\..\JOCN-master\task a\images\baked_cheetos_crunchy.jpg,3.0,
,,,,,,,,,,,,1.0,..\..\JOCN-master\task a\images\basil_vanilla.jpg,1.0,
,,,,,,,,,,,,3.0,..\..\JOCN-master\task a\images\starburst_favereds_candy.jpg,7.0,
,,,,,,,,,,,,2.0,..\..\JOCN-master\task a\images\austin_choco creme_choc cookies.jpg,3.0,
,,,,,,,,,,,,1.0,..\..\JOCN-master\task a\images\welch's_tropical_fruits.jpg,3.0,
,,,,,,,,,,,,1.0,..\..\JOCN-master\task a\images\grandmas_vanilla sandwhich creme_cookies.jpg,2.0,
,,,,,,,,,,,,7.0,..\..\JOCN-master\task a\images\nabisco_mini_ritz.jpg,3.0,
,,,,,,,,,,,,1.0,..\..\JOCN-master\task a\images\brookside_fruit and nut_bar.jpg,1.0,
,,,,,,,,,,,,1.0,..\..\JOCN-master\task a\images\luke's_organic_chips.jpg,5.0,
,,,,,,,,,,,,1.0,..\..\JOCN-master\task a\images\baked_lays_sour cream and onion.jpg,2.0,
,,,,,,,,,,,,2.0,..\..\JOCN-master\task a\images\combos_cheddar cheese_pretzel.jpg,2.0,
,,,,,,,,,,,,2.0,..\..\JOCN-master\task a\images\nature_valley_chewy.jpg,1.0,
,,,,,,,,,,,,7.0,..\..\JOCN-master\task a\images\reeses_peanut butter cups_milk choc.jpg,1.0,
,,,,,,,,,,,,1.0,..\..\JOCN-master\task a\images\starburst_verry berry_candy.jpg,6.0,
,,,,,,,,,,,,7.0,..\..\JOCN-master\task a\images\kettle_salt_vinegar.jpg,7.0,
,,,,,,,,,,,,3.0,..\..\JOCN-master\task a\images\larabar_cashew_cookie_bar.jpg,2.0,
,,,,,,,,,,,,5.0,..\..\JOCN-master\task a\images\ritz_toasted_chips.jpg,2.0,
,,,,,,,,,,,,5.0,..\..\JOCN-master\task a\images\nestle_butterfinger_bar.jpg,1.0,
,,,,,,,,,,,,7.0,..\..\JOCN-master\task a\images\nabisco_oreo_mini.jpg,6.0,
,,,,,,,,,,,,1.0,..\..\JOCN-master\task a\images\krave_jerky_original.jpg,3.0,
,,,,,,,,,,,,1.0,..\..\JOCN-master\task a\images\cascadian_farm_granola.jpg,1.0,
,,,,,,,,,,,,4.0,..\..\JOCN-master\task a\images\sunchips_harvest cheddar_chips.jpg,3.0,
,,,,,,,,,,,,2.0,..\..\JOCN-master\task a\images\mini_cheese_nips.jpg,2.0,
,,,,,,,,,,,,6.0,..\..\JOCN-master\task a\images\belvita_golden_oats.JPG,2.0,
,,,,,,,,,,,,7.0,..\..\JOCN-master\task a\images\haribo_gold_bears.jpg,7.0,
,,,,,,,,,,,,7.0,..\..\JOCN-master\task a\images\wheat_thins.jpg,5.0,
,,,,,,,,,,,,4.0,..\..\JOCN-master\task a\images\popchips_ridges_tangy_bbq.jpg,2.0,
,,,,,,,,,,,,1.0,..\..\JOCN-master\task a\images\larabar_peanut_butter_cookie_bar.jpg,1.0,
,,,,,,,,,,,,7.0,..\..\JOCN-master\task a\images\chex mix_original_traditional.jpg,5.0,
,,,,,,,,,,,,1.0,..\..\JOCN-master\task a\images\kar's_yogurt apple_nut mix.jpg,1.0,
,,,,,,,,,,,,1.0,..\..\JOCN-master\task a\images\kashi_chocolate almond _bars.jpg,3.0,
,,,,,,,,,,,,7.0,..\..\JOCN-master\task a\images\snickers_milk chocolate_candy bar.jpg,1.0,
,,,,,,,,,,,,7.0,..\..\JOCN-master\task a\images\kettle_bbq.jpg,7.0,
,,,,,,,,,,,,6.0,..\..\JOCN-master\task a\images\sun chips_original_chips.jpg,3.0,
,,,,,,,,,,,,2.0,..\..\JOCN-master\task a\images\annie's_chocolate_bunny_grahams.jpg,3.0,
,,,,,,,,,,,,6.0,..\..\JOCN-master\task a\images\barnum's_animal_crackers.jpg,2.0,
,,,,,,,,,,,,1.0,..\..\JOCN-master\task a\images\eatrageous_bbq.jpg,1.0,
,,,,,,,,,,,,6.0,..\..\JOCN-master\task a\images\special_k_cracker_chips.jpg,2.0,
,,,,,,,,,,,,7.0,..\..\JOCN-master\task a\images\keebler_fudge_stripes.jpg,3.0,
,,,,,,,,,,,,7.0,..\..\JOCN-master\task a\images\sourpatchkids_original_candy.jpg,6.0,
,,,,,,,,,,,,6.0,..\..\JOCN-master\task a\images\grandmas_chocolate chip_cookies.jpg,6.0,
,,,,,,,,,,,,1.0,..\..\JOCN-master\task a\images\kars_mango pinapple_trail mix.jpg,1.0,
,,,,,,,,,,,,7.0,..\..\JOCN-master\task a\images\pepperidge farms-goldish-cheddar.jpg,5.0,
,,,,,,,,,,,,7.0,..\..\JOCN-master\task a\images\lays_kc masterpiece_barbecue chips.jpg,7.0,
,,,,,,,,,,,,2.0,..\..\JOCN-master\task a\images\jacklinks_beef_steak.jpg,4.0,
,,,,,,,,,,,,7.0,..\..\JOCN-master\task a\images\fig_newtons.jpg,1.0,
,,,,,,,,,,,,4.0,..\..\JOCN-master\task a\images\emerald_cashews.jpg,1.0,
,,,,,,,,,,,,2.0,..\..\JOCN-master\task a\images\ct_crunch_cereal_bar.jpg,5.0,
,,,,,,,,,,,,1.0,..\..\JOCN-master\task a\images\austin_lemon ohs_lemon cookies.jpg,3.0,
,,,,,,,,,,,,2.0,..\..\JOCN-master\task a\images\this_popcorn_is_awesome_popcorn.jpg,4.0,
,,,,,,,,,,,,3.0,..\..\JOCN-master\task a\images\nutrigrain_apple cinnamon_bar.jpg,4.0,
,,,,,,,,,,,,1.0,..\..\JOCN-master\task a\images\this_popcorn_is_awesome_crushed_pepper.jpg,5.0,
,,,,,,,,,,,,7.0,..\..\JOCN-master\task a\images\hersheys_milk choc_almond.jpg,7.0,
,,,,,,,,,,,,5.0,..\..\JOCN-master\task a\images\popchips_sea_salt.jpg,2.0,
,,,,,,,,,,,,1.0,..\..\JOCN-master\task a\images\larabar_peanut putter_bar.jpg,1.0,
,,,,,,,,,,,,6.0,..\..\JOCN-master\task a\images\annie's_cheddar_bunnies.jpg,4.0,
,,,,,,,,,,,,2.0,..\..\JOCN-master\task a\images\this_popcorn_is_awesome_olive_oil.jpg,4.0,
,,,,,,,,,,,,7.0,..\..\JOCN-master\task a\images\m&m's_peanut_butter.jpg,5.0,
,,,,,,,,,,,,3.0,..\..\JOCN-master\task a\images\kars_raisin_almond_cashew_mix.jpg,1.0,
,,,,,,,,,,,,6.0,..\..\JOCN-master\task a\images\lance_toasty_with_pb.jpg,1.0,
,,,,,,,,,,,,7.0,..\..\JOCN-master\task a\images\welch's_mixed fruit_fruit snacks.jpg,6.0,
,,,,,,,,,,,,6.0,..\..\JOCN-master\task a\images\belvita_banana_bread.jpg,3.0,
,,,,,,,,,,,,7.0,..\..\JOCN-master\task a\images\m&m's_milk_chocholate.jpg,7.0,
,,,,,,,,,,,,7.0,..\..\JOCN-master\task a\images\cheez-it_white_cheddar.JPG,5.0,
,,,,,,,,,,,,1.0,..\..\JOCN-master\task a\images\krave_jerky_chili_lime.jpg,1.0,
,,,,,,,,,,,,7.0,..\..\JOCN-master\task a\images\kellogg's_rice krispies_orignal.jpg,3.0,
,,,,,,,,,,,,7.0,..\..\JOCN-master\task a\images\jacklinks_beef_stick.jpg,6.0,
,,,,,,,,,,,,4.0,..\..\JOCN-master\task a\images\austin_cheddar cheese_cheese cracker.jpg,1.0,
,,,,,,,,,,,,1.0,..\..\JOCN-master\task a\images\basils_peanut_butter.jpg,1.0,
,,,,,,,,,,,,7.0,..\..\JOCN-master\task a\images\garden_veggie straws_cheddar.jpg,3.0,
,,,,,,,,,,,,5.0,..\..\JOCN-master\task a\images\sun chips_french onion_chips.jpg,3.0,
,,,,,,,,,,,,1.0,..\..\JOCN-master\task a\images\black_forest_gummies.jpg,3.0,
,,,,,,,,,,,,2.0,..\..\JOCN-master\task a\images\basils_lemon.jpg,3.0,
,,,,,,,,,,,,1.0,..\..\JOCN-master\task a\images\this_popcorn_is_awesome_aged_white_cheddar.jpg,2.0,
,,,,,,,,,,,,1.0,..\..\JOCN-master\task a\images\kars_all_energy.jpg,1.0,
,,,,,,,,,,,,7.0,..\..\JOCN-master\task a\images\doritos_cool ranch_chips.jpg,7.0,
,,,,,,,,,,,,7.0,..\..\JOCN-master\task a\images\nestle_crunch_bar.jpg,6.0,
,,,,,,,,,,,,6.0,..\..\JOCN-master\task a\images\belvita_blueberry.JPG,3.0,
,,,,,,,,,,,,7.0,..\..\JOCN-master\task a\images\pringles_cheddar_potato crisps.jpg,3.0,
,,,,,,,,,,,,1.0,..\..\JOCN-master\task a\images\eatrageous_mac_n_cheese.jpg,1.0,
,,,,,,,,,,,,1.0,..\..\JOCN-master\task a\images\popchips_ridges_cheddar_sourcream.jpg,2.0,
,,,,,,,,,,,,1.0,..\..\JOCN-master\task a\images\krave_jerky_black_cherry_bbq.jpg,1.0,
,,,,,,,,,,,,6.0,..\..\JOCN-master\task a\images\nuture valley_crunchy_bar.jpg,3.0,
,,,,,,,,,,,,2.0,..\..\JOCN-master\task a\images\garden_veggie straws_zesty ranch.jpg,3.0,
,,,,,,,,,,,,1.0,..\..\JOCN-master\task a\images\walkers_highlander_shortbread.jpg,2.0,
,,,,,,,,,,,,7.0,..\..\JOCN-master\task a\images\garden_veggie straws_sea salt.jpg,7.0,
,,,,,,,,,,,,4.0,..\..\JOCN-master\task a\images\boulder_kettle_hickory_bbq.jpg,5.0,
,,,,,,,,,,,,1.0,..\..\JOCN-master\task a\images\homefree_vanilla_minicookies.jpg,1.0,
,,,,,,,,,,,,1.0,..\..\JOCN-master\task a\images\larabar_apple_pie_bar.jpg,1.0,
,,,,,,,,,,,,7.0,..\..\JOCN-master\task a\images\kitkat_crisp wafers_milk choc.jpg,7.0,
,,,,,,,,,,,,7.0,..\..\JOCN-master\task a\images\boulder_kettle_olive_oil.jpg,7.0,
,,,,,,,,,,,,7.0,..\..\JOCN-master\task a\images\skittles_original_candy.jpg,6.0,
,,,,,,,,,,,,2.0,..\..\JOCN-master\task a\images\grandmas_chocolate brownie_cookie.jpg,5.0,
,,,,,,,,,,,,7.0,..\..\JOCN-master\task a\images\swedish fish_original_candy.jpg,7.0,
,,,,,,,,,,,,1.0,..\..\JOCN-master\task a\images\jacklinks_small_batch.jpg,4.0,
,,,,,,,,,,,,1.0,..\..\JOCN-master\task a\images\emerald_sriracha_cashews.jpg,1.0,
,,,,,,,,,,,,7.0,..\..\JOCN-master\task a\images\quaker_chewy_peanut butter choc chip.jpg,6.0,
,,,,,,,,,,,,1.0,..\..\JOCN-master\task a\images\basils_duplex_sandwich_cremes.jpg,2.0,
,,,,,,,,,,,,2.0,..\..\JOCN-master\task a\images\cliff_chocolate chip_bar.jpg,1.0,
,,,,,,,,,,,,1.0,..\..\JOCN-master\task a\images\annie's_chocolate_chip_bunny_grahams.jpg,3.0,
,,,,,,,,,,,,1.0,..\..\JOCN-master\task a\images\stonyfield_fruit snacks.jpg,4.0,
,,,,,,,,,,,,7.0,..\..\JOCN-master\task a\images\jacklinks_beef_jerky_original.jpg,6.0,
,,,,,,,,,,,,3.0,..\..\JOCN-master\task a\images\skittles_darkside_candy.jpg,7.0,
,,,,,,,,,,,,7.0,..\..\JOCN-master\task a\images\doritos_nacho cheesier_chips.jpg,6.0,
,,,,,,,,,,,,6.0,..\..\JOCN-master\task a\images\teddy_grahams_chocolate.jpg,3.0,
,,,,,,,,,,,,1.0,..\..\JOCN-master\task a\images\emerald_dark_chocolate_almonds.jpg,1.0,
,,,,,,,,,,,,6.0,..\..\JOCN-master\task a\images\nabisco_ritz bits_cookies.jpg,4.0,
,,,,,,,,,,,,7.0,..\..\JOCN-master\task a\images\3 musketeers_candy bar.jpg,6.0,
,,,,,,,,,,,,7.0,..\..\JOCN-master\task a\images\milkyway_orginal_candy.jpg,7.0,
,,,,,,,,,,,,7.0,..\..\JOCN-master\task a\images\keebler_chips_deluxe.jpg,5.0,
,,,,,,,,,,,,2.0,..\..\JOCN-master\task a\images\nestle_butterfinger_cups.jpg,1.0,
,,,,,,,,,,,,5.0,..\..\JOCN-master\task a\images\keebler_cheese_and_peanut_butter.jpg,2.0,
,,,,,,,,,,,,1.0,..\..\JOCN-master\task a\images\kind_dark_chocolate.jpg,1.0,
,,,,,,,,,,,,6.0,..\..\JOCN-master\task a\images\fiber one_cinamon_coffee cake.jpg,4.0,
,,,,,,,,,,,,4.0,..\..\JOCN-master\task a\images\nature valley_oats and honey_crunchy.jpg,3.0,
,,,,,,,,,,,,7.0,..\..\JOCN-master\task a\images\boulder_kettle_sea_salt.jpg,7.0,
,,,,,,,,,,,,7.0,..\..\JOCN-master\task a\images\kettle_salt_pepper.jpg,7.0,
,,,,,,,,,,,,4.0,..\..\JOCN-master\task a\images\lance_van-o_cookies.jpg,2.0,
1.5,3.83593039971,$1.5,4.06317915057,2.0,1.0,6,12.0,1.5,n/a,2,1.25 1.0 1.5,,,,6.0
1.5,1.29061442654,$1.75,2.3479297412,1.0,0.0,7,2.0,1.5,2.38983672258,7,0.5 1.75 0.75 1.5,,,,2.0
12.0,6.41887891106e-06,..\..\JOCN-master\task a\images\chips_ahoy_thin_crisps.jpg,9.43953637034e-06,1.0,1.0,n/a,12.0,1.25,,n/a,..\..\JOCN-master\task a\images\special_k_cracker_chips.jpg ..\..\JOCN-master\task a\images\garden_veggie straws_sea salt.jpg ..\..\JOCN-master\task a\images\sourpatchkids_original_candy.jpg ..\..\JOCN-master\task a\images\baked_cheetos_crunchy.jpg ..\..\JOCN-master\task a\images\nabisco_oreo_mini.jpg ..\..\JOCN-master\task a\images\barnum's_animal_crackers.jpg ..\..\JOCN-master\task a\images\swedish fish_original_candy.jpg ..\..\JOCN-master\task a\images\belvita_golden_oats.JPG ..\..\JOCN-master\task a\images\oreo_thin_crisps.jpg ..\..\JOCN-master\task a\images\nestle_butterfinger_cups.jpg ..\..\JOCN-master\task a\images\pepperidge farms-goldish-cheddar.jpg ..\..\JOCN-master\task a\images\chips_ahoy_thin_crisps.jpg,,,,4.0
6.0,5.66369271837e-06,..\..\JOCN-master\task a\images\milkyway_orginal_candy.jpg,1.24601647258e-05,2.0,1.0,n/a,6.0,1.75,,n/a,..\..\JOCN-master\task a\images\baked_lays_classic.jpg ..\..\JOCN-master\task a\images\quaker_chewy_dark choc chunk.jpg ..\..\JOCN-master\task a\images\milkyway_orginal_candy.jpg ..\..\JOCN-master\task a\images\baked_ruffles_cheddar &sour.JPG ..\..\JOCN-master\task a\images\kellogg's_rice krispies_orignal.jpg ..\..\JOCN-master\task a\images\nabisco_chips ahhoy_mini.jpg,,,,8.0
0.75,1.16985376657,$1.75,1.73195058067,2.0,0.0,5,6.0,0.75,2.67819094809,7,1.5 0.75 1.75 0.5,,,,5.0
12.0,1.77243219304,..\..\JOCN-master\task a\images\hersey_milk_chocolate.jpg,1.33003730123,1.0,0.0,7,12.0,1.25,2.2868348388,7,..\..\JOCN-master\task a\images\snickers_milk chocolate_candy bar.jpg ..\..\JOCN-master\task a\images\fiber one_chocolate fudge_ brownie.jpg ..\..\JOCN-master\task a\images\baked_cheetos_crunchy.jpg ..\..\JOCN-master\task a\images\nabisco_oreo_mini.jpg ..\..\JOCN-master\task a\images\planters_honey roasted_peanuts.jpg ..\..\JOCN-master\task a\images\sourpatchkids_original_candy.jpg ..\..\JOCN-master\task a\images\hersey_milk_chocolate.jpg ..\..\JOCN-master\task a\images\sun chips_garden salsa_chips.jpg ..\..\JOCN-master\task a\images\hersheys_milk choc_almond.jpg ..\..\JOCN-master\task a\images\kettle_salt_vinegar.jpg ..\..\JOCN-master\task a\images\swedish fish_original_candy.jpg ..\..\JOCN-master\task a\images\sun chips_french onion_chips.jpg,,,,1.0
3.0,6.41887891106e-06,..\..\JOCN-master\task a\images\nabisco_oreo_mini.jpg,1.28377578221e-05,2.0,1.0,n/a,3.0,1.75,,n/a,..\..\JOCN-master\task a\images\chex mix_original_traditional.jpg ..\..\JOCN-master\task a\images\pringles_cheddar_potato crisps.jpg ..\..\JOCN-master\task a\images\nabisco_oreo_mini.jpg,,,,8.0
1.25,2.21156100751,$1.75,0.866030794772,2.0,0.0,7,2.0,1.25,2.6956208511,7,0.75 1.0 1.25 1.75 0.5 1.5,,,,5.0
12.0,1.82431940048,..\..\JOCN-master\task a\images\snickers_milk chocolate_candy bar.jpg,2.09727246672,1.0,0.0,4,12.0,1.0,3.91556755928,5,..\..\JOCN-master\task a\images\emerald_dark_chocolate_almonds.jpg ..\..\JOCN-master\task a\images\grandmas_oatmeal raisin_cookies.jpg ..\..\JOCN-master\task a\images\nature_valley_chewy.jpg ..\..\JOCN-master\task a\images\planters_salted_peanuts.jpg ..\..\JOCN-master\task a\images\emerald_natural_almonds.jpg ..\..\JOCN-master\task a\images\cheetos_crunchy_chips.jpg ..\..\JOCN-master\task a\images\baked_cheetos_crunchy.jpg ..\..\JOCN-master\task a\images\teddy_grahams_chocolate.jpg ..\..\JOCN-master\task a\images\chips_ahoy_thin_crisps.jpg ..\..\JOCN-master\task a\images\sun chips_french onion_chips.jpg ..\..\JOCN-master\task a\images\nestle_babyruth_bar.jpg ..\..\JOCN-master\task a\images\snickers_milk chocolate_candy bar.jpg,,,,2.0
1.75,1.65702034821,$1.75,1.39859132009,1.0,0.0,4,3.0,1.75,2.66175446121,7,1.75 0.5 1.25 1.0,,,,1.0
2.0,1.93662677269,..\..\JOCN-master\task a\images\nabisco_nutter butter_bites.jpg,1.2335339674,1.0,0.0,4,2.0,1.5,4.03121992329,4,..\..\JOCN-master\task a\images\nabisco_nutter butter_bites.jpg ..\..\JOCN-master\task a\images\fiber one_oats and choc_chewy bar.jpg,,,,1.0
3.0,1.64579410423,..\..\JOCN-master\task a\images\skittles_wild berry_candy.jpg,2.50414263207,2.0,0.0,4,3.0,0.5,2.84335515628,4,..\..\JOCN-master\task a\images\skinny_pop_popcorn.jpg ..\..\JOCN-master\task a\images\kettle_original.jpg ..\..\JOCN-master\task a\images\skittles_wild berry_candy.jpg,,,,5.0
12.0,5.6637218222e-06,..\..\JOCN-master\task a\images\nature_valley_chewy.jpg,1.09498505481e-05,1.0,1.0,n/a,12.0,1.75,,n/a,..\..\JOCN-master\task a\images\skittles_wild berry_candy.jpg ..\..\JOCN-master\task a\images\quaker_chewy_chocolate chip.jpg ..\..\JOCN-master\task a\images\nature_valley_sweet_and_salty.jpg ..\..\JOCN-master\task a\images\teddy_grahams_chocolate.jpg ..\..\JOCN-master\task a\images\doritos_cool ranch_chips.jpg ..\..\JOCN-master\task a\images\garden_veggie straws_sea salt.jpg ..\..\JOCN-master\task a\images\nestle_babyruth_bar.jpg ..\..\JOCN-master\task a\images\hersey_milk_chocolate.jpg ..\..\JOCN-master\task a\images\austin_peanut butter_cheese cracker.jpg ..\..\JOCN-master\task a\images\grandma's_peanut butter_cookies.jpg ..\..\JOCN-master\task a\images\combos_cheddar cheese_pretzel.jpg ..\..\JOCN-master\task a\images\nature_valley_chewy.jpg,,,,3.0
6.0,5.6637218222e-06,..\..\JOCN-master\task a\images\pringles_sour cream and onion_potato crisps.jpg,1.05722865555e-05,2.0,1.0,n/a,6.0,0.5,,n/a,..\..\JOCN-master\task a\images\pringles_the original_potato crisps.jpg ..\..\JOCN-master\task a\images\lance_toasty_with_pb.jpg ..\..\JOCN-master\task a\images\pringles_sour cream and onion_potato crisps.jpg ..\..\JOCN-master\task a\images\emerald_natural_almonds.jpg ..\..\JOCN-master\task a\images\kellogg's_rice krispies_orignal.jpg ..\..\JOCN-master\task a\images\garden_veggie straws_sea salt.jpg,,,,7.0
6.0,1.47271315119,..\..\JOCN-master\task a\images\m&m's_milk_chocholate.jpg,1.98616920094,1.0,0.0,5,6.0,1.25,3.36538531972,7,..\..\JOCN-master\task a\images\milkyway_orginal_candy.jpg ..\..\JOCN-master\task a\images\m&m's_milk_chocholate.jpg ..\..\JOCN-master\task a\images\hersey_milk_chocolate.jpg ..\..\JOCN-master\task a\images\twix_milk chocolate_cookie bars.jpg ..\..\JOCN-master\task a\images\chex mix_original_traditional.jpg ..\..\JOCN-master\task a\images\swedish fish_original_candy.jpg,,,,2.0
1.25,6.04128581472e-06,$1.75,4.15340764448e-06,2.0,1.0,n/a,3.0,1.25,,n/a,0.5 1.0 1.75 0.75 1.25 1.5,,,,7.0
1.75,2.03264189407,$1.75,0.98221290519,2.0,0.0,4,3.0,1.75,2.65807002396,7,1.5 1.75 0.5,,,,6.0
12.0,1.98460865786,..\..\JOCN-master\task a\images\kellogg's_rice krispies_orignal.jpg,2.34522663744,2.0,0.0,4,12.0,1.5,2.86819018162,4,..\..\JOCN-master\task a\images\kellogg's_rice krispies_orignal.jpg ..\..\JOCN-master\task a\images\nestle_babyruth_bar.jpg ..\..\JOCN-master\task a\images\keebler_chips_deluxe.jpg ..\..\JOCN-master\task a\images\fiber one_oats and choc_chewy bar.jpg ..\..\JOCN-master\task a\images\pepperidge farms-goldish-cheddar.jpg ..\..\JOCN-master\task a\images\planters_salted_cashews.jpg ..\..\JOCN-master\task a\images\pringles_sour cream and onion_potato crisps.jpg ..\..\JOCN-master\task a\images\grandmas_chocolate chip_cookies.jpg ..\..\JOCN-master\task a\images\austin_peanut butter_cheese cracker.jpg ..\..\JOCN-master\task a\images\m&m's_peanut.jpg ..\..\JOCN-master\task a\images\quaker_chewy_peanut butter choc chip.jpg ..\..\JOCN-master\task a\images\chex mix_original_traditional.jpg,,,,6.0
1.25,6.04131491855e-06,$1.5,8.30678618513e-06,2.0,1.0,n/a,12.0,1.25,,n/a,1.0 1.25 0.5 1.5,,,,8.0
0.5,6.41887891106e-06,$1.0,5.6637218222e-06,1.0,1.0,n/a,12.0,0.5,,n/a,1.0 0.5,,,,3.0
6.0,1.99268549716,..\..\JOCN-master\task a\images\nabisco_chips ahhoy_mini.jpg,3.06503382939,1.0,0.0,4,6.0,1.25,3.26705902387,6,..\..\JOCN-master\task a\images\cheez itz_original.jpg ..\..\JOCN-master\task a\images\keebler_chips delux_cookies_crackers.jpg ..\..\JOCN-master\task a\images\austin_vanilla creme_vanilla cookies.jpg ..\..\JOCN-master\task a\images\nabisco_chips ahhoy_mini.jpg ..\..\JOCN-master\task a\images\nature valley_oats and honey_crunchy.jpg ..\..\JOCN-master\task a\images\jacklinks_beef_jerky_original.jpg,,,,2.0
1.25,6.04128581472e-06,$1.25,4.15340764448e-06,1.0,1.0,n/a,12.0,1.25,,n/a,1.25 1.0,,,,3.0
2.0,6.04131491855e-06,..\..\JOCN-master\task a\images\doritos_cool ranch_chips.jpg,1.28377578221e-05,2.0,1.0,n/a,2.0,0.5,,n/a,..\..\JOCN-master\task a\images\baked_lays_classic.jpg ..\..\JOCN-master\task a\images\doritos_cool ranch_chips.jpg,,,,8.0
2.0,6.04131491855e-06,..\..\JOCN-master\task a\images\kellogg's_rice krispies_orignal.jpg,1.3592914911e-05,2.0,1.0,n/a,2.0,1.75,,n/a,..\..\JOCN-master\task a\images\kellogg's_rice krispies_orignal.jpg ..\..\JOCN-master\task a\images\lays_classic_potato chips.jpg,,,,7.0
6.0,2.18725837165,..\..\JOCN-master\task a\images\nabisco_nutter butter_bites.jpg,0.894158705691,2.0,0.0,4,6.0,1.0,2.73116332386,4,..\..\JOCN-master\task a\images\nabisco_nutter butter_bites.jpg ..\..\JOCN-master\task a\images\jacklinks_beef_jerky_original.jpg ..\..\JOCN-master\task a\images\jacklinks_beef_steak.jpg ..\..\JOCN-master\task a\images\keebler_cheese_and_peanut_butter.jpg ..\..\JOCN-master\task a\images\haribo_gold_bears.jpg ..\..\JOCN-master\task a\images\austin_peanut_butter.jpg,,,,6.0
6.0,1.39563523696,..\..\JOCN-master\task a\images\twix_milk chocolate_cookie bars.jpg,1.76128524105,2.0,0.0,4,6.0,0.5,2.4658253151,4,..\..\JOCN-master\task a\images\fritos_original_corn chips.jpg ..\..\JOCN-master\task a\images\kettle_salt_vinegar.jpg ..\..\JOCN-master\task a\images\twix_milk chocolate_cookie bars.jpg ..\..\JOCN-master\task a\images\nuture valley_crunchy_bar.jpg ..\..\JOCN-master\task a\images\sun chips_original_chips.jpg ..\..\JOCN-master\task a\images\chips_ahoy_thin_crisps.jpg,,,,6.0
1.0,1.59455935709,$1.25,2.58087279403,1.0,0.0,5,2.0,1.0,3.22569651456,1,1.25 1.0,,,,1.0
12.0,1.52231561483,..\..\JOCN-master\task a\images\famous_amos_chocolate_chip.jpg,2.401648595,2.0,0.0,5,12.0,1.5,2.84184671941,4,..\..\JOCN-master\task a\images\welch's_mixed fruit_fruit snacks.jpg ..\..\JOCN-master\task a\images\famous_amos_chocolate_chip.jpg ..\..\JOCN-master\task a\images\skittles_original_candy.jpg ..\..\JOCN-master\task a\images\starburst_verry berry_candy.jpg ..\..\JOCN-master\task a\images\pirates booty_aged white cheddar_ corn puffs.jpg ..\..\JOCN-master\task a\images\jacklinks_beef_steak.jpg ..\..\JOCN-master\task a\images\austin_cheddar cheese_cheese cracker.jpg ..\..\JOCN-master\task a\images\nabisco_nutter butter_bites.jpg ..\..\JOCN-master\task a\images\sunchips_harvest cheddar_chips.jpg ..\..\JOCN-master\task a\images\skittles_wild berry_candy.jpg ..\..\JOCN-master\task a\images\keebler_chips delux_cookies_crackers.jpg ..\..\JOCN-master\task a\images\quaker_chewy_dark choc chunk.jpg,,,,5.0
3.0,1.89493236953,..\..\JOCN-master\task a\images\pringles_the original_potato crisps.jpg,1.06251309736,2.0,0.0,7,3.0,0.75,2.68087819347,4,..\..\JOCN-master\task a\images\pringles_the original_potato crisps.jpg ..\..\JOCN-master\task a\images\swedish fish_original_candy.jpg ..\..\JOCN-master\task a\images\quaker_chewy_chocolate chip.jpg,,,,5.0
6.0,1.75845149421,..\..\JOCN-master\task a\images\welch's_mixed fruit_fruit snacks.jpg,3.23203761311,2.0,0.0,4,6.0,1.25,3.27826827671,2,..\..\JOCN-master\task a\images\nature_valley_sweet_and_salty.jpg ..\..\JOCN-master\task a\images\nestle_butterfinger_cups.jpg ..\..\JOCN-master\task a\images\garden_veggie straws_zesty ranch.jpg ..\..\JOCN-master\task a\images\welch's_mixed fruit_fruit snacks.jpg ..\..\JOCN-master\task a\images\milkyway_orginal_candy.jpg ..\..\JOCN-master\task a\images\reeses_peanut butter cups_milk choc.jpg,,,,5.0
1.75,1.49386902541,$1.75,0.815695823607,1.0,0.0,7,2.0,1.75,2.77361930828,7,0.5 1.75 1.25,,,,2.0
1.25,6.04128581472e-06,$1.25,4.530971637e-06,2.0,1.0,n/a,6.0,1.25,,n/a,1.25 1.0,,,,8.0
2.0,2.07012702207,..\..\JOCN-master\task a\images\doritos_nacho cheesier_chips.jpg,1.5760556132,2.0,0.0,4,2.0,0.75,2.72905226742,1,..\..\JOCN-master\task a\images\doritos_nacho cheesier_chips.jpg ..\..\JOCN-master\task a\images\baked_cheetos_crunchy.jpg,,,,6.0
6.0,1.47672230829,..\..\JOCN-master\task a\images\pringles_the original_potato crisps.jpg,2.10254954148,2.0,0.0,4,6.0,0.75,2.69967758344,7,..\..\JOCN-master\task a\images\welch's_mixed fruit_fruit snacks.jpg ..\..\JOCN-master\task a\images\kettle_salt_pepper.jpg ..\..\JOCN-master\task a\images\skittles_sour_candy.jpg ..\..\JOCN-master\task a\images\pringles_the original_potato crisps.jpg ..\..\JOCN-master\task a\images\hersheys_milk choc_almond.jpg ..\..\JOCN-master\task a\images\nuture valley_crunchy_bar.jpg,,,,6.0
12.0,2.55928723243,..\..\JOCN-master\task a\images\garden_veggie straws_sea salt.jpg,1.25686810748,1.0,0.0,7,12.0,1.0,3.52084908949,7,..\..\JOCN-master\task a\images\austin_peanut_butter.jpg ..\..\JOCN-master\task a\images\pringles_the original_potato crisps.jpg ..\..\JOCN-master\task a\images\keebler_chips delux_cookies_crackers.jpg ..\..\JOCN-master\task a\images\quaker_chewy_chocolate chip.jpg ..\..\JOCN-master\task a\images\quaker_chewy_peanut butter choc chip.jpg ..\..\JOCN-master\task a\images\keebler_cheese_and_peanut_butter.jpg ..\..\JOCN-master\task a\images\sunchips_harvest cheddar_chips.jpg ..\..\JOCN-master\task a\images\skinny_pop_popcorn.jpg ..\..\JOCN-master\task a\images\garden_veggie straws_sea salt.jpg ..\..\JOCN-master\task a\images\hersey_milk_chocolate.jpg ..\..\JOCN-master\task a\images\austin_cheddar cheese_cheese cracker.jpg ..\..\JOCN-master\task a\images\nature_valley_sweet_and_salty.jpg,,,,2.0
2.0,5.66369271837e-06,..\..\JOCN-master\task a\images\starburst_verry berry_candy.jpg,1.24601647258e-05,1.0,1.0,n/a,2.0,0.75,,n/a,..\..\JOCN-master\task a\images\starburst_verry berry_candy.jpg ..\..\JOCN-master\task a\images\baked_lays_barbeque.jpg,,,,4.0
12.0,5.6637218222e-06,..\..\JOCN-master\task a\images\grandmas_oatmeal raisin_cookies.jpg,1.39705080073e-05,1.0,1.0,n/a,12.0,1.75,,n/a,..\..\JOCN-master\task a\images\grandmas_oatmeal raisin_cookies.jpg ..\..\JOCN-master\task a\images\nestle_crunch_bar.jpg ..\..\JOCN-master\task a\images\fritos_original_corn chips.jpg ..\..\JOCN-master\task a\images\quaker_chewy_peanut butter choc chip.jpg ..\..\JOCN-master\task a\images\belvita_golden_oats.JPG ..\..\JOCN-master\task a\images\fiber one_chocolate fudge_ brownie.jpg ..\..\JOCN-master\task a\images\wheat_thins.jpg ..\..\JOCN-master\task a\images\haribo_gold_bears.jpg ..\..\JOCN-master\task a\images\baked_cheetos_crunchy.jpg ..\..\JOCN-master\task a\images\cheez-it_white_cheddar.JPG ..\..\JOCN-master\task a\images\austin_peanut_butter.jpg ..\..\JOCN-master\task a\images\m&m's_peanut.jpg,,,,4.0
12.0,1.5149924276,..\..\JOCN-master\task a\images\cheez itz_original.jpg,1.85361894581,2.0,0.0,4,12.0,1.0,2.32415798449,3,..\..\JOCN-master\task a\images\keebler_vanilla_sugar_wafers.jpg ..\..\JOCN-master\task a\images\famous_amos_chocolate_chip.jpg ..\..\JOCN-master\task a\images\planters_honey roasted_peanuts.jpg ..\..\JOCN-master\task a\images\nuture valley_crunchy_bar.jpg ..\..\JOCN-master\task a\images\kettle_original.jpg ..\..\JOCN-master\task a\images\nature_valley_sweet_and_salty.jpg ..\..\JOCN-master\task a\images\cheez-it_white_cheddar.JPG ..\..\JOCN-master\task a\images\fritos_original_corn chips.jpg ..\..\JOCN-master\task a\images\cheez itz_original.jpg ..\..\JOCN-master\task a\images\snyders_mini_pretzels.jpg ..\..\JOCN-master\task a\images\hersey_milk_chocolate.jpg ..\..\JOCN-master\task a\images\garden_veggie straws_sea salt.jpg,,,,6.0
6.0,1.34475239547,..\..\JOCN-master\task a\images\sunchips_harvest cheddar_chips.jpg,2.21531189905,1.0,0.0,7,6.0,1.0,2.3919636374,7,..\..\JOCN-master\task a\images\emerald_dark_chocolate_almonds.jpg ..\..\JOCN-master\task a\images\wheat_thins.jpg ..\..\JOCN-master\task a\images\planters_salted_cashews.jpg ..\..\JOCN-master\task a\images\starburst_verry berry_candy.jpg ..\..\JOCN-master\task a\images\sunchips_harvest cheddar_chips.jpg ..\..\JOCN-master\task a\images\nuture valley_crunchy_bar.jpg,,,,1.0
3.0,1.73163076938,..\..\JOCN-master\task a\images\lays_classic_potato chips.jpg,2.25313685014,2.0,0.0,4,3.0,0.5,2.66516628486,7,..\..\JOCN-master\task a\images\starburst_verry berry_candy.jpg ..\..\JOCN-master\task a\images\lays_classic_potato chips.jpg ..\..\JOCN-master\task a\images\kettle_salt_vinegar.jpg,,,,5.0
0.5,5.6637218222e-06,$1.0,3.77581454813e-06,1.0,1.0,n/a,3.0,0.5,,n/a,1.0 1.75 0.5 1.25,,,,4.0
0.75,1.88519304027,$1.25,2.61454359686,1.0,0.0,1,2.0,0.75,3.35005099233,1,1.5 1.0 0.75 1.25,,,,2.0
6.0,1.4397563544,..\..\JOCN-master\task a\images\pringles_the original_potato crisps.jpg,1.62629694419,2.0,0.0,4,6.0,1.5,3.47822621418,7,..\..\JOCN-master\task a\images\welch's_mixed fruit_fruit snacks.jpg ..\..\JOCN-master\task a\images\skittles_wild berry_candy.jpg ..\..\JOCN-master\task a\images\austin_vanilla creme_vanilla cookies.jpg ..\..\JOCN-master\task a\images\doritos_nacho cheesier_chips.jpg ..\..\JOCN-master\task a\images\pringles_the original_potato crisps.jpg ..\..\JOCN-master\task a\images\kettle_salt_vinegar.jpg,,,,5.0
12.0,1.62525557526,..\..\JOCN-master\task a\images\pringles_the original_potato crisps.jpg,2.63919700563,1.0,0.0,7,12.0,0.5,2.59996065602,7,..\..\JOCN-master\task a\images\popchips_sea_salt.jpg ..\..\JOCN-master\task a\images\lays_classic_potato chips.jpg ..\..\JOCN-master\task a\images\nuture valley_crunchy_bar.jpg ..\..\JOCN-master\task a\images\skittles_sour_candy.jpg ..\..\JOCN-master\task a\images\keebler_chips delux_cookies_crackers.jpg ..\..\JOCN-master\task a\images\twix_milk chocolate_cookie bars.jpg ..\..\JOCN-master\task a\images\pringles_the original_potato crisps.jpg ..\..\JOCN-master\task a\images\nature valley_oats and honey_crunchy.jpg ..\..\JOCN-master\task a\images\swedish fish_original_candy.jpg ..\..\JOCN-master\task a\images\garden_veggie straws_sea salt.jpg ..\..\JOCN-master\task a\images\cheez itz_original.jpg ..\..\JOCN-master\task a\images\nabisco_nutter butter_bites.jpg,,,,1.0
0.75,1.70451477609,$1.75,1.3157500065,1.0,0.0,6,2.0,0.75,3.63518520546,7,0.75 1.75,,,,2.0
12.0,1.40855002403,..\..\JOCN-master\task a\images\popchips_sea_salt.jpg,3.08632789829,2.0,0.0,4,12.0,0.5,2.41639465088,6,..\..\JOCN-master\task a\images\belvita_golden_oats.JPG ..\..\JOCN-master\task a\images\jacklinks_beef_jerky_original.jpg ..\..\JOCN-master\task a\images\pirates booty_aged white cheddar_ corn puffs.jpg ..\..\JOCN-master\task a\images\lance_toast_cheese_with_pb.JPG ..\..\JOCN-master\task a\images\lays_classic_potato chips.jpg ..\..\JOCN-master\task a\images\keebler_fudge_stripes.jpg ..\..\JOCN-master\task a\images\barnum's_animal_crackers.jpg ..\..\JOCN-master\task a\images\keebler_vanilla_sugar_wafers.jpg ..\..\JOCN-master\task a\images\nestle_butterfinger_bar.jpg ..\..\JOCN-master\task a\images\m&m's_peanut.jpg ..\..\JOCN-master\task a\images\welch's_mixed fruit_fruit snacks.jpg ..\..\JOCN-master\task a\images\popchips_sea_salt.jpg,,,,5.0
1.0,5.6637218222e-06,$1.0,4.90856473334e-06,2.0,1.0,n/a,12.0,1.0,,n/a,1.25 1.0 1.75,,,,7.0
6.0,1.75223839571,..\..\JOCN-master\task a\images\m&m's_peanut.jpg,1.15754575247,1.0,0.0,7,6.0,1.25,2.56461301516,7,..\..\JOCN-master\task a\images\kettle_salt_vinegar.jpg ..\..\JOCN-master\task a\images\cheez itz_original.jpg ..\..\JOCN-master\task a\images\nature valley_oats and honey_crunchy.jpg ..\..\JOCN-master\task a\images\kitkat_crisp wafers_milk choc.jpg ..\..\JOCN-master\task a\images\m&m's_peanut.jpg ..\..\JOCN-master\task a\images\fiber one_oats and choc_chewy bar.jpg,,,,1.0
1.5,6.04128581472e-06,$1.75,4.15340764448e-06,2.0,1.0,n/a,3.0,1.5,,n/a,1.75 1.5 1.25 1.0 0.5 0.75,,,,8.0
6.0,1.97456575331,..\..\JOCN-master\task a\images\sunchips_harvest cheddar_chips.jpg,1.57922049874,1.0,0.0,6,6.0,0.75,3.80369402783,7,..\..\JOCN-master\task a\images\nabisco_oreo_mini.jpg ..\..\JOCN-master\task a\images\doritos_nacho cheesier_chips.jpg ..\..\JOCN-master\task a\images\sunchips_harvest cheddar_chips.jpg ..\..\JOCN-master\task a\images\lance_toast_cheese_with_pb.JPG ..\..\JOCN-master\task a\images\sourpatchkids_original_candy.jpg ..\..\JOCN-master\task a\images\nestle_crunch_bar.jpg,,,,2.0
12.0,1.32330955955,..\..\JOCN-master\task a\images\kettle_salt_vinegar.jpg,3.27367198086,1.0,0.0,6,12.0,1.5,2.71426090182,7,..\..\JOCN-master\task a\images\nabisco_oreo_mini.jpg ..\..\JOCN-master\task a\images\cheetos_crunchy_chips.jpg ..\..\JOCN-master\task a\images\fiber one_chocolate fudge_ brownie.jpg ..\..\JOCN-master\task a\images\sun chips_original_chips.jpg ..\..\JOCN-master\task a\images\hersheys_milk choc_almond.jpg ..\..\JOCN-master\task a\images\m&m's_peanut.jpg ..\..\JOCN-master\task a\images\sun chips_garden salsa_chips.jpg ..\..\JOCN-master\task a\images\planters_salted_cashews.jpg ..\..\JOCN-master\task a\images\keebler_chips delux_cookies_crackers.jpg ..\..\JOCN-master\task a\images\sunchips_harvest cheddar_chips.jpg ..\..\JOCN-master\task a\images\planters_honey roasted_peanuts.jpg ..\..\JOCN-master\task a\images\kettle_salt_vinegar.jpg,,,,1.0
12.0,1.05960761008,..\..\JOCN-master\task a\images\pirates booty_aged white cheddar_ corn puffs.jpg,3.08933948592,1.0,0.0,6,12.0,1.25,2.86801347361,7,..\..\JOCN-master\task a\images\snickers_milk chocolate_candy bar.jpg ..\..\JOCN-master\task a\images\starburst_favereds_candy.jpg ..\..\JOCN-master\task a\images\emerald_dark_chocolate_almonds.jpg ..\..\JOCN-master\task a\images\emerald_natural_almonds.jpg ..\..\JOCN-master\task a\images\sourpatchkids_original_candy.jpg ..\..\JOCN-master\task a\images\3 musketeers_candy bar.jpg ..\..\JOCN-master\task a\images\pirates booty_aged white cheddar_ corn puffs.jpg ..\..\JOCN-master\task a\images\lays_classic_potato chips.jpg ..\..\JOCN-master\task a\images\keebler_chips delux_cookies_crackers.jpg ..\..\JOCN-master\task a\images\fiber one_oats and choc_chewy bar.jpg ..\..\JOCN-master\task a\images\famous_amos_chocolate_chip.jpg ..\..\JOCN-master\task a\images\skittles_sour_candy.jpg,,,,1.0
3.0,6.41887891106e-06,..\..\JOCN-master\task a\images\kellogg's_rice krispies_orignal.jpg,9.43953637034e-06,1.0,1.0,n/a,3.0,1.25,,n/a,..\..\JOCN-master\task a\images\kellogg's_rice krispies_orignal.jpg ..\..\JOCN-master\task a\images\wheat_thins.jpg ..\..\JOCN-master\task a\images\sunchips_harvest cheddar_chips.jpg,,,,3.0
1.0,2.40655903838,$1.0,3.6800074912,1.0,1.0,4,3.0,1.0,n/a,7,0.75 1.0,,,,2.0
12.0,6.04128581472e-06,..\..\JOCN-master\task a\images\kitkat_crisp wafers_milk choc.jpg,1.13274436444e-05,2.0,1.0,n/a,12.0,1.5,,n/a,..\..\JOCN-master\task a\images\skittles_sour_candy.jpg ..\..\JOCN-master\task a\images\baked_lays_classic.jpg ..\..\JOCN-master\task a\images\quaker_chewy_chocolate chip.jpg ..\..\JOCN-master\task a\images\skittles_original_candy.jpg ..\..\JOCN-master\task a\images\lance_captain_wafers_with_honey_and_pb.JPG ..\..\JOCN-master\task a\images\sunchips_harvest cheddar_chips.jpg ..\..\JOCN-master\task a\images\chips_ahoy_thin_crisps.jpg ..\..\JOCN-master\task a\images\keebler_vanilla_sugar_wafers.jpg ..\..\JOCN-master\task a\images\nabisco_nutter butter_cookies and crackers.jpg ..\..\JOCN-master\task a\images\chex mix_original_traditional.jpg ..\..\JOCN-master\task a\images\austin_peanut butter_cheese cracker.jpg ..\..\JOCN-master\task a\images\kitkat_crisp wafers_milk choc.jpg,,,,8.0
3.0,2.27818181063,..\..\JOCN-master\task a\images\sun chips_garden salsa_chips.jpg,1.93592107343,1.0,0.0,5,3.0,1.25,4.42621969109,7,..\..\JOCN-master\task a\images\m&m's_milk_chocholate.jpg ..\..\JOCN-master\task a\images\sun chips_garden salsa_chips.jpg ..\..\JOCN-master\task a\images\sun chips_french onion_chips.jpg,,,,1.0
1.0,6.41887891106e-06,$0.5,3.77581454813e-06,2.0,1.0,n/a,2.0,1.0,,n/a,1.5 1.25 0.5 1.75 0.75 1.0,,,,7.0
2.0,2.0645735579,..\..\JOCN-master\task a\images\planters_salted_peanuts.jpg,2.61435744932,2.0,0.0,3,2.0,0.5,3.4638720876,7,..\..\JOCN-master\task a\images\planters_salted_peanuts.jpg ..\..\JOCN-master\task a\images\doritos_cool ranch_chips.jpg,,,,6.0
12.0,1.72689741157,..\..\JOCN-master\task a\images\cheez-it_white_cheddar.JPG,3.42816385668,2.0,0.0,4,12.0,1.25,2.68332869536,5,..\..\JOCN-master\task a\images\nuture valley_crunchy_bar.jpg ..\..\JOCN-master\task a\images\baked_lays_barbeque.jpg ..\..\JOCN-master\task a\images\garden_veggie straws_sea salt.jpg ..\..\JOCN-master\task a\images\fritos_original_corn chips.jpg ..\..\JOCN-master\task a\images\nabisco_nutter butter_cookies and crackers.jpg ..\..\JOCN-master\task a\images\snickers_milk chocolate_candy bar.jpg ..\..\JOCN-master\task a\images\cheez-it_white_cheddar.JPG ..\..\JOCN-master\task a\images\m&m's_milk_chocholate.jpg ..\..\JOCN-master\task a\images\sun chips_garden salsa_chips.jpg ..\..\JOCN-master\task a\images\sun chips_original_chips.jpg ..\..\JOCN-master\task a\images\nature_valley_sweet_and_salty.jpg ..\..\JOCN-master\task a\images\austin_peanut_butter.jpg,,,,6.0
6.0,1.31005192874,..\..\JOCN-master\task a\images\sun chips_original_chips.jpg,2.57185313449,2.0,0.0,4,6.0,1.0,2.55303675338,7,..\..\JOCN-master\task a\images\pringles_sour cream and onion_potato crisps.jpg ..\..\JOCN-master\task a\images\garden_veggie straws_zesty ranch.jpg ..\..\JOCN-master\task a\images\lance_toast_cheese_with_pb.JPG ..\..\JOCN-master\task a\images\m&m's_peanut.jpg ..\..\JOCN-master\task a\images\sun chips_original_chips.jpg ..\..\JOCN-master\task a\images\kettle_salt_pepper.jpg,,,,5.0
2.0,6.04131491855e-06,..\..\JOCN-master\task a\images\snyders_mini_pretzels.jpg,1.32153509185e-05,1.0,1.0,n/a,2.0,0.5,,n/a,..\..\JOCN-master\task a\images\lance_toast_cheese_with_pb.JPG ..\..\JOCN-master\task a\images\snyders_mini_pretzels.jpg,,,,3.0
3.0,5.6637218222e-06,..\..\JOCN-master\task a\images\austin_peanut_butter.jpg,1.13274436444e-05,2.0,1.0,n/a,3.0,1.5,,n/a,..\..\JOCN-master\task a\images\austin_peanut_butter.jpg ..\..\JOCN-master\task a\images\m&m's_milk_chocholate.jpg ..\..\JOCN-master\task a\images\twix_milk chocolate_cookie bars.jpg,,,,8.0
12.0,5.6637218222e-06,..\..\JOCN-master\task a\images\nestle_babyruth_bar.jpg,1.05722574517e-05,1.0,1.0,n/a,12.0,1.25,,n/a,..\..\JOCN-master\task a\images\fiber one_oats and choc_chewy bar.jpg ..\..\JOCN-master\task a\images\doritos_cool ranch_chips.jpg ..\..\JOCN-master\task a\images\kettle_original.jpg ..\..\JOCN-master\task a\images\skittles_sour_candy.jpg ..\..\JOCN-master\task a\images\fiber one_chocolate fudge_ brownie.jpg ..\..\JOCN-master\task a\images\austin_peanut_butter.jpg ..\..\JOCN-master\task a\images\nuture valley_crunchy_bar.jpg ..\..\JOCN-master\task a\images\lance_captain_wafers_with_honey_and_pb.JPG ..\..\JOCN-master\task a\images\cheez-it_white_cheddar.JPG ..\..\JOCN-master\task a\images\nestle_babyruth_bar.jpg ..\..\JOCN-master\task a\images\quaker_chewy_chocolate chip.jpg ..\..\JOCN-master\task a\images\baked_lays_classic.jpg,,,,3.0
12.0,2.38232889812,..\..\JOCN-master\task a\images\kettle_salt_vinegar.jpg,3.89893586293,2.0,0.0,4,12.0,1.0,2.96403350349,7,..\..\JOCN-master\task a\images\sun chips_original_chips.jpg ..\..\JOCN-master\task a\images\keebler_cheese_and_peanut_butter.jpg ..\..\JOCN-master\task a\images\kettle_salt_vinegar.jpg ..\..\JOCN-master\task a\images\basil_vanilla.jpg ..\..\JOCN-master\task a\images\nestle_crunch_bar.jpg ..\..\JOCN-master\task a\images\teddy_grahams_chocolate.jpg ..\..\JOCN-master\task a\images\quaker_chewy_chocolate chip.jpg ..\..\JOCN-master\task a\images\grandmas_chocolate brownie_cookie.jpg ..\..\JOCN-master\task a\images\starburst_favereds_candy.jpg ..\..\JOCN-master\task a\images\kettle_salt_pepper.jpg ..\..\JOCN-master\task a\images\nature_valley_chewy.jpg ..\..\JOCN-master\task a\images\doritos_nacho cheesier_chips.jpg,,,,5.0
1.5,5.6637218222e-06,$1.75,6.04131491855e-06,2.0,1.0,n/a,3.0,1.5,,n/a,1.0 1.75 1.5,,,,8.0
3.0,2.13906504103,..\..\JOCN-master\task a\images\garden_veggie straws_sea salt.jpg,1.23404181411,1.0,0.0,7,3.0,0.5,2.3346713552,7,..\..\JOCN-master\task a\images\garden_veggie straws_sea salt.jpg ..\..\JOCN-master\task a\images\fiber one_oats and choc_chewy bar.jpg ..\..\JOCN-master\task a\images\planters_honey roasted_peanuts.jpg,,,,1.0
12.0,1.17362806812,..\..\JOCN-master\task a\images\3 musketeers_candy bar.jpg,4.02880151576,1.0,0.0,6,12.0,0.5,2.60583770735,7,..\..\JOCN-master\task a\images\kettle_salt_vinegar.jpg ..\..\JOCN-master\task a\images\popchips_sea_salt.jpg ..\..\JOCN-master\task a\images\emerald_dark_chocolate_almonds.jpg ..\..\JOCN-master\task a\images\keebler_chips delux_cookies_crackers.jpg ..\..\JOCN-master\task a\images\nature valley_oats and honey_crunchy.jpg ..\..\JOCN-master\task a\images\swedish fish_original_candy.jpg ..\..\JOCN-master\task a\images\starburst_favereds_candy.jpg ..\..\JOCN-master\task a\images\hersey_milk_chocolate.jpg ..\..\JOCN-master\task a\images\reeses_peanut butter cups_milk choc.jpg ..\..\JOCN-master\task a\images\3 musketeers_candy bar.jpg ..\..\JOCN-master\task a\images\emerald_natural_almonds.jpg ..\..\JOCN-master\task a\images\snickers_milk chocolate_candy bar.jpg,,,,1.0
6.0,1.64342176158,..\..\JOCN-master\task a\images\grandmas_chocolate chip_cookies.jpg,2.9836378966,2.0,0.0,4,6.0,0.75,2.63387424359,3,..\..\JOCN-master\task a\images\sun chips_garden salsa_chips.jpg ..\..\JOCN-master\task a\images\nestle_babyruth_bar.jpg ..\..\JOCN-master\task a\images\nabisco_chips ahhoy_mini.jpg ..\..\JOCN-master\task a\images\garden_veggie straws_sea salt.jpg ..\..\JOCN-master\task a\images\famous_amos_chocolate_chip.jpg ..\..\JOCN-master\task a\images\grandmas_chocolate chip_cookies.jpg,,,,5.0
2.0,5.6637218222e-06,..\..\JOCN-master\task a\images\pepperidge farms-goldish-cheddar.jpg,9.43953637034e-06,2.0,1.0,n/a,2.0,1.5,,n/a,..\..\JOCN-master\task a\images\pepperidge farms-goldish-cheddar.jpg ..\..\JOCN-master\task a\images\nabisco_chips ahhoy_mini.jpg,,,,7.0
12.0,1.68404307897,..\..\JOCN-master\task a\images\kettle_original.jpg,3.0084317656,1.0,0.0,7,12.0,0.75,3.08363083581,7,..\..\JOCN-master\task a\images\emerald_dark_chocolate_almonds.jpg ..\..\JOCN-master\task a\images\sun chips_garden salsa_chips.jpg ..\..\JOCN-master\task a\images\hersey_milk_chocolate.jpg ..\..\JOCN-master\task a\images\special_k_cracker_chips.jpg ..\..\JOCN-master\task a\images\keebler_chips delux_cookies_crackers.jpg ..\..\JOCN-master\task a\images\planters_honey roasted_peanuts.jpg ..\..\JOCN-master\task a\images\m&m's_milk_chocholate.jpg ..\..\JOCN-master\task a\images\sunchips_harvest cheddar_chips.jpg ..\..\JOCN-master\task a\images\twix_milk chocolate_cookie bars.jpg ..\..\JOCN-master\task a\images\kettle_original.jpg ..\..\JOCN-master\task a\images\famous_amos_chocolate_chip.jpg ..\..\JOCN-master\task a\images\lays_classic_potato chips.jpg,,,,1.0
12.0,6.04125671089e-06,..\..\JOCN-master\task a\images\sun chips_french onion_chips.jpg,1.0194722563e-05,2.0,1.0,n/a,12.0,1.75,,n/a,..\..\JOCN-master\task a\images\popchips_sea_salt.jpg ..\..\JOCN-master\task a\images\m&m's_milk_chocholate.jpg ..\..\JOCN-master\task a\images\fiber one_oats and choc_chewy bar.jpg ..\..\JOCN-master\task a\images\sun chips_original_chips.jpg ..\..\JOCN-master\task a\images\nabisco_oreo_mini.jpg ..\..\JOCN-master\task a\images\austin_peanut_butter.jpg ..\..\JOCN-master\task a\images\sun chips_french onion_chips.jpg ..\..\JOCN-master\task a\images\quaker_chewy_peanut butter choc chip.jpg ..\..\JOCN-master\task a\images\nuture valley_crunchy_bar.jpg ..\..\JOCN-master\task a\images\chips_ahoy_thin_crisps.jpg ..\..\JOCN-master\task a\images\haribo_gold_bears.jpg ..\..\JOCN-master\task a\images\jacklinks_beef_steak.jpg,,,,8.0
6.0,1.9872037734,..\..\JOCN-master\task a\images\nabisco_oreo_mini.jpg,2.08792091336,1.0,0.0,5,6.0,1.25,2.53977912257,7,..\..\JOCN-master\task a\images\haribo_gold_bears.jpg ..\..\JOCN-master\task a\images\baked_lays_barbeque.jpg ..\..\JOCN-master\task a\images\reeses_peanut butter cups_milk choc.jpg ..\..\JOCN-master\task a\images\nabisco_oreo_mini.jpg ..\..\JOCN-master\task a\images\3 musketeers_candy bar.jpg ..\..\JOCN-master\task a\images\swedish fish_original_candy.jpg,,,,2.0
6.0,3.4055554276,..\..\JOCN-master\task a\images\garden_veggie straws_sea salt.jpg,1.98306888173,1.0,0.0,6,6.0,1.5,3.09773500374,7,..\..\JOCN-master\task a\images\fritos_original_corn chips.jpg ..\..\JOCN-master\task a\images\grandmas_chocolate chip_cookies.jpg ..\..\JOCN-master\task a\images\lance_toast_cheese_with_pb.JPG ..\..\JOCN-master\task a\images\planters_honey roasted_peanuts.jpg ..\..\JOCN-master\task a\images\pringles_cheddar_potato crisps.jpg ..\..\JOCN-master\task a\images\garden_veggie straws_sea salt.jpg,,,,2.0
1.25,n/a,0.5,n/a,2.0,1.0,4,6.0,1.25,n/a,2,..\..\JOCN-master\task a\images\m&m's_peanut_butter.jpg ..\..\JOCN-master\task a\images\quaker_chewy_peanut butter choc chip.jpg ..\..\JOCN-master\task a\images\starburst_orignal_candy.jpg ..\..\JOCN-master\task a\images\kettle_original.jpg ..\..\JOCN-master\task a\images\planters_salted_peanuts.jpg ..\..\JOCN-master\task a\images\wheat_thins.jpg,,,,5.0
1.75,2.19751574227,$1.75,1.18208890752,2.0,0.0,4,3.0,1.75,2.63830327091,6,0.5 0.75 1.75 1.25 1.5 1.0,,,,5.0
6.0,6.79644290358e-06,..\..\JOCN-master\task a\images\planters_salted_cashews.jpg,1.51032581925e-05,2.0,1.0,n/a,6.0,0.75,,n/a,..\..\JOCN-master\task a\images\skittles_original_candy.jpg ..\..\JOCN-master\task a\images\mini_fudge_stripes.jpg ..\..\JOCN-master\task a\images\lays_classic_potato chips.jpg ..\..\JOCN-master\task a\images\kettle_salt_vinegar.jpg ..\..\JOCN-master\task a\images\skittles_wild berry_candy.jpg ..\..\JOCN-master\task a\images\planters_salted_cashews.jpg,,,,7.0
1.75,1.53971266828,$1.75,0.69910705823,1.0,0.0,5,3.0,1.75,3.16184829012,7,1.5 0.5 1.75,,,,1.0
3.0,1.98803482961,..\..\JOCN-master\task a\images\nabisco_oreo_mini.jpg,1.62278053054,2.0,0.0,4,3.0,0.5,2.943001476,7,..\..\JOCN-master\task a\images\nuture valley_crunchy_bar.jpg ..\..\JOCN-master\task a\images\special_k_cracker_chips.jpg ..\..\JOCN-master\task a\images\nabisco_oreo_mini.jpg,,,,6.0
0.5,6.04125671089e-06,$0.75,6.41884980723e-06,1.0,1.0,n/a,6.0,0.5,,n/a,1.75 0.5 0.75,,,,4.0
12.0,1.90940241353,..\..\JOCN-master\task a\images\m&m's_milk_chocholate.jpg,3.14282839274,2.0,0.0,4,12.0,0.5,2.3852838485,7,..\..\JOCN-master\task a\images\nabisco_nutter butter_bites.jpg ..\..\JOCN-master\task a\images\swedish fish_original_candy.jpg ..\..\JOCN-master\task a\images\austin_cheddar cheese_cheese cracker.jpg ..\..\JOCN-master\task a\images\welch's_mixed fruit_fruit snacks.jpg ..\..\JOCN-master\task a\images\grandmas_chocolate brownie_cookie.jpg ..\..\JOCN-master\task a\images\m&m's_milk_chocholate.jpg ..\..\JOCN-master\task a\images\skinny_pop_popcorn.jpg ..\..\JOCN-master\task a\images\garden_veggie straws_sea salt.jpg ..\..\JOCN-master\task a\images\combos_cheddar cheese_pretzel.jpg ..\..\JOCN-master\task a\images\hersey_milk_chocolate.jpg ..\..\JOCN-master\task a\images\planters_salted_peanuts.jpg ..\..\JOCN-master\task a\images\doritos_nacho cheesier_chips.jpg,,,,5.0
12.0,1.39359516575,..\..\JOCN-master\task a\images\nabisco_oreo_mini.jpg,2.42712815147,1.0,0.0,5,12.0,1.75,2.63610914664,7,..\..\JOCN-master\task a\images\jacklinks_beef_steak.jpg ..\..\JOCN-master\task a\images\cheez-it_white_cheddar.JPG ..\..\JOCN-master\task a\images\special_k_cracker_chips.jpg ..\..\JOCN-master\task a\images\nabisco_nutter butter_cookies and crackers.jpg ..\..\JOCN-master\task a\images\jacklinks_beef_jerky_original.jpg ..\..\JOCN-master\task a\images\nabisco_oreo_mini.jpg ..\..\JOCN-master\task a\images\welch's_mixed fruit_fruit snacks.jpg ..\..\JOCN-master\task a\images\reeses_peanut butter cups_milk choc.jpg ..\..\JOCN-master\task a\images\grandmas_chocolate chip_cookies.jpg ..\..\JOCN-master\task a\images\keebler_fudge_stripes.jpg ..\..\JOCN-master\task a\images\nestle_crunch_bar.jpg ..\..\JOCN-master\task a\images\austin_peanut butter_cheese cracker.jpg,,,,2.0
3.0,6.41884980723e-06,..\..\JOCN-master\task a\images\doritos_cool ranch_chips.jpg,1.09498505481e-05,2.0,1.0,n/a,3.0,1.75,,n/a,..\..\JOCN-master\task a\images\lance_captain_wafers_with_honey_and_pb.JPG ..\..\JOCN-master\task a\images\doritos_cool ranch_chips.jpg ..\..\JOCN-master\task a\images\doritos_nacho cheesier_chips.jpg,,,,8.0
12.0,1.23762166139,..\..\JOCN-master\task a\images\famous_amos_chocolate_chip.jpg,2.49700710265,2.0,0.0,4,12.0,0.5,3.49044625188,7,..\..\JOCN-master\task a\images\famous_amos_chocolate_chip.jpg ..\..\JOCN-master\task a\images\grandma's_peanut butter_cookies.jpg ..\..\JOCN-master\task a\images\wheat_thins.jpg ..\..\JOCN-master\task a\images\reeses_peanut butter cups_milk choc.jpg ..\..\JOCN-master\task a\images\nabisco_nutter butter_bites.jpg ..\..\JOCN-master\task a\images\skinny_pop_popcorn.jpg ..\..\JOCN-master\task a\images\planters_salted_cashews.jpg ..\..\JOCN-master\task a\images\starburst_verry berry_candy.jpg ..\..\JOCN-master\task a\images\mini_fudge_stripes.jpg ..\..\JOCN-master\task a\images\nabisco_chips ahhoy_mini.jpg ..\..\JOCN-master\task a\images\quaker_chewy_peanut butter choc chip.jpg ..\..\JOCN-master\task a\images\cheez-it_white_cheddar.JPG,,,,6.0
0.75,6.04131491855e-06,$0.75,4.15334943682e-06,1.0,1.0,n/a,6.0,0.75,,n/a,0.75 1.5 1.75,,,,4.0
3.0,2.88223657949,..\..\JOCN-master\task a\images\pringles_the original_potato crisps.jpg,1.65642981126,1.0,0.0,5,3.0,0.75,2.96123260626,7,..\..\JOCN-master\task a\images\m&m's_milk_chocholate.jpg ..\..\JOCN-master\task a\images\pringles_the original_potato crisps.jpg ..\..\JOCN-master\task a\images\doritos_nacho cheesier_chips.jpg,,,,2.0
1.25,2.07403574261,$1.75,0.999111173849,2.0,0.0,4,2.0,1.25,3.25173451361,5,0.5 1.0 1.75 1.5 1.25 0.75,,,,5.0
6.0,2.29822117725,..\..\JOCN-master\task a\images\famous_amos_chocolate_chip.jpg,2.10490829119,2.0,0.0,4,6.0,1.5,2.45760688285,7,..\..\JOCN-master\task a\images\pringles_the original_potato crisps.jpg ..\..\JOCN-master\task a\images\skinny_pop_popcorn.jpg ..\..\JOCN-master\task a\images\famous_amos_chocolate_chip.jpg ..\..\JOCN-master\task a\images\starburst_orignal_candy.jpg ..\..\JOCN-master\task a\images\lance_captain_wafers_with_honey_and_pb.JPG ..\..\JOCN-master\task a\images\snickers_milk chocolate_candy bar.jpg,,,,6.0
2.0,7.55162909627e-06,..\..\JOCN-master\task a\images\lays_classic_potato chips.jpg,9.43947816268e-06,2.0,1.0,n/a,2.0,0.75,,n/a,..\..\JOCN-master\task a\images\barnum's_animal_crackers.jpg ..\..\JOCN-master\task a\images\lays_classic_potato chips.jpg,,,,8.0
12.0,6.04125671089e-06,..\..\JOCN-master\task a\images\nabisco_nutter butter_cookies and crackers.jpg,1.05722574517e-05,1.0,1.0,n/a,12.0,1.75,,n/a,..\..\JOCN-master\task a\images\lance_toasty_with_pb.jpg ..\..\JOCN-master\task a\images\quaker_chewy_dark choc chunk.jpg ..\..\JOCN-master\task a\images\combos_cheddar cheese_pretzel.jpg ..\..\JOCN-master\task a\images\swedish fish_original_candy.jpg ..\..\JOCN-master\task a\images\grandmas_oatmeal raisin_cookies.jpg ..\..\JOCN-master\task a\images\starburst_orignal_candy.jpg ..\..\JOCN-master\task a\images\sun chips_french onion_chips.jpg ..\..\JOCN-master\task a\images\barnum's_animal_crackers.jpg ..\..\JOCN-master\task a\images\nabisco_nutter butter_cookies and crackers.jpg ..\..\JOCN-master\task a\images\planters_salted_peanuts.jpg ..\..\JOCN-master\task a\images\pringles_cheddar_potato crisps.jpg ..\..\JOCN-master\task a\images\skinny_pop_popcorn.jpg,,,,4.0
12.0,1.54550551891,..\..\JOCN-master\task a\images\famous_amos_chocolate_chip.jpg,3.822943117,2.0,0.0,7,12.0,1.5,3.79584751313,7,..\..\JOCN-master\task a\images\special_k_cracker_chips.jpg ..\..\JOCN-master\task a\images\nabisco_chips ahhoy_mini.jpg ..\..\JOCN-master\task a\images\planters_salted_peanuts.jpg ..\..\JOCN-master\task a\images\famous_amos_chocolate_chip.jpg ..\..\JOCN-master\task a\images\grandmas_chocolate brownie_cookie.jpg ..\..\JOCN-master\task a\images\quaker_chewy_peanut butter choc chip.jpg ..\..\JOCN-master\task a\images\snyders_mini_pretzels.jpg ..\..\JOCN-master\task a\images\grandma's_peanut butter_cookies.jpg ..\..\JOCN-master\task a\images\fritos_original_corn chips.jpg ..\..\JOCN-master\task a\images\doritos_nacho cheesier_chips.jpg ..\..\JOCN-master\task a\images\hersey_milk_chocolate.jpg ..\..\JOCN-master\task a\images\fiber one_oats and choc_chewy bar.jpg,,,,5.0
1.75,1.98033708183,$1.75,1.38222468575,1.0,0.0,7,3.0,1.75,3.85079765914,7,0.5 1.75,,,,2.0
6.0,1.93823262549,..\..\JOCN-master\task a\images\lays_classic_potato chips.jpg,3.24554822332,1.0,1.0,2,6.0,0.75,n/a,2,..\..\JOCN-master\task a\images\lays_classic_potato chips.jpg ..\..\JOCN-master\task a\images\cheez itz_original.jpg ..\..\JOCN-master\task a\images\wheat_thins.jpg ..\..\JOCN-master\task a\images\mini_fudge_stripes.jpg ..\..\JOCN-master\task a\images\swedish fish_original_candy.jpg ..\..\JOCN-master\task a\images\snickers_milk chocolate_candy bar.jpg,,,,1.0
3.0,1.84997453215,..\..\JOCN-master\task a\images\garden_veggie straws_zesty ranch.jpg,1.25218270248,1.0,0.0,7,3.0,0.5,1.82898668159,7,..\..\JOCN-master\task a\images\garden_veggie straws_zesty ranch.jpg ..\..\JOCN-master\task a\images\m&m's_milk_chocholate.jpg ..\..\JOCN-master\task a\images\nabisco_nutter butter_bites.jpg,,,,1.0
3.0,1.69808947691,..\..\JOCN-master\task a\images\grandmas_chocolate brownie_cookie.jpg,2.63379155326,2.0,0.0,7,3.0,0.5,3.47404488001,3,..\..\JOCN-master\task a\images\grandmas_chocolate brownie_cookie.jpg ..\..\JOCN-master\task a\images\keebler_cheese_and_peanut_butter.jpg ..\..\JOCN-master\task a\images\austin_peanut butter_cheese cracker.jpg,,,,5.0
0.5,6.41890801489e-06,$0.5,3.77581454813e-06,2.0,1.0,n/a,12.0,0.5,,n/a,0.5 1.75 1.0,,,,7.0
1.25,5.28618693352e-06,$1.25,4.53100074083e-06,1.0,1.0,n/a,2.0,1.25,,n/a,1.25 1.5 0.75,,,,4.0
6.0,5.6637218222e-06,..\..\JOCN-master\task a\images\3 musketeers_candy bar.jpg,1.20826298371e-05,1.0,1.0,n/a,6.0,1.75,,n/a,..\..\JOCN-master\task a\images\combos_cheddar cheese_pretzel.jpg ..\..\JOCN-master\task a\images\grandma's_peanut butter_cookies.jpg ..\..\JOCN-master\task a\images\3 musketeers_candy bar.jpg ..\..\JOCN-master\task a\images\jacklinks_beef_steak.jpg ..\..\JOCN-master\task a\images\austin_cheddar cheese_cheese cracker.jpg ..\..\JOCN-master\task a\images\wheat_thins.jpg,,,,4.0
6.0,1.78032326238,..\..\JOCN-master\task a\images\cheetos_crunchy_chips.jpg,1.94032593566,2.0,0.0,7,6.0,0.75,2.30858049484,7,..\..\JOCN-master\task a\images\special_k_cracker_chips.jpg ..\..\JOCN-master\task a\images\quaker_chewy_chocolate chip.jpg ..\..\JOCN-master\task a\images\cheetos_crunchy_chips.jpg ..\..\JOCN-master\task a\images\welch's_mixed fruit_fruit snacks.jpg ..\..\JOCN-master\task a\images\combos_cheddar cheese_pretzel.jpg ..\..\JOCN-master\task a\images\milkyway_orginal_candy.jpg,,,,5.0
1.5,6.04125671089e-06,$1.5,4.90853562951e-06,2.0,1.0,n/a,3.0,1.5,,n/a,1.75 1.5 0.75,,,,7.0
6.0,2.40617768141,..\..\JOCN-master\task a\images\fritos_original_corn chips.jpg,3.76287787856,2.0,0.0,5,6.0,1.25,4.49037073564,7,..\..\JOCN-master\task a\images\skinny_pop_popcorn.jpg ..\..\JOCN-master\task a\images\nabisco_nutter butter_cookies and crackers.jpg ..\..\JOCN-master\task a\images\grandmas_oatmeal raisin_cookies.jpg ..\..\JOCN-master\task a\images\planters_salted_cashews.jpg ..\..\JOCN-master\task a\images\skittles_original_candy.jpg ..\..\JOCN-master\task a\images\fritos_original_corn chips.jpg,,,,6.0
1.75,2.22166998876,$1.75,1.06547106843,1.0,0.0,7,3.0,1.75,2.02225010452,7,1.75 0.5,,,,2.0
2.0,6.04125671089e-06,..\..\JOCN-master\task a\images\special_k_cracker_chips.jpg,1.43481302075e-05,1.0,1.0,n/a,2.0,1.5,,n/a,..\..\JOCN-master\task a\images\planters_salted_cashews.jpg ..\..\JOCN-master\task a\images\special_k_cracker_chips.jpg,,,,3.0
12.0,1.69765337068,..\..\JOCN-master\task a\images\grandmas_chocolate chip_cookies.jpg,3.06631118659,2.0,0.0,7,12.0,1.25,3.75923724071,4,..\..\JOCN-master\task a\images\skittles_wild berry_candy.jpg ..\..\JOCN-master\task a\images\popchips_sea_salt.jpg ..\..\JOCN-master\task a\images\chex mix_original_traditional.jpg ..\..\JOCN-master\task a\images\garden_veggie straws_zesty ranch.jpg ..\..\JOCN-master\task a\images\lance_toasty_with_pb.jpg ..\..\JOCN-master\task a\images\pepperidge farms-goldish-cheddar.jpg ..\..\JOCN-master\task a\images\lance_toast_cheese_with_pb.JPG ..\..\JOCN-master\task a\images\quaker_chewy_dark choc chunk.jpg ..\..\JOCN-master\task a\images\keebler_chips_deluxe.jpg ..\..\JOCN-master\task a\images\starburst_orignal_candy.jpg ..\..\JOCN-master\task a\images\nestle_babyruth_bar.jpg ..\..\JOCN-master\task a\images\grandmas_chocolate chip_cookies.jpg,,,,5.0
1.75,1.77527009323,$1.75,1.94820152415,1.0,0.0,7,2.0,1.75,3.39723391575,6,1.75 0.75 1.0 0.5,,,,1.0
12.0,1.42289999727,..\..\JOCN-master\task a\images\nabisco_nutter butter_cookies and crackers.jpg,1.85869892314,1.0,0.0,5,12.0,1.75,2.99461267155,7,..\..\JOCN-master\task a\images\sun chips_french onion_chips.jpg ..\..\JOCN-master\task a\images\nabisco_chips ahhoy_mini.jpg ..\..\JOCN-master\task a\images\pirates booty_aged white cheddar_ corn puffs.jpg ..\..\JOCN-master\task a\images\pepperidge farms-goldish-cheddar.jpg ..\..\JOCN-master\task a\images\nabisco_nutter butter_cookies and crackers.jpg ..\..\JOCN-master\task a\images\baked_lays_classic.jpg ..\..\JOCN-master\task a\images\mini_fudge_stripes.jpg ..\..\JOCN-master\task a\images\keebler_vanilla_sugar_wafers.jpg ..\..\JOCN-master\task a\images\starburst_verry berry_candy.jpg ..\..\JOCN-master\task a\images\nature_valley_sweet_and_salty.jpg ..\..\JOCN-master\task a\images\skittles_wild berry_candy.jpg ..\..\JOCN-master\task a\images\nabisco_nutter butter_bites.jpg,,,,2.0
12.0,1.14188972593,..\..\JOCN-master\task a\images\garden_veggie straws_sea salt.jpg,2.26757177908,1.0,0.0,7,12.0,0.5,2.23555289407,7,..\..\JOCN-master\task a\images\emerald_natural_almonds.jpg ..\..\JOCN-master\task a\images\baked_cheetos_crunchy.jpg ..\..\JOCN-master\task a\images\planters_honey roasted_peanuts.jpg ..\..\JOCN-master\task a\images\lance_toast_cheese_with_pb.JPG ..\..\JOCN-master\task a\images\sun chips_french onion_chips.jpg ..\..\JOCN-master\task a\images\planters_salted_cashews.jpg ..\..\JOCN-master\task a\images\fiber one_oats and choc_chewy bar.jpg ..\..\JOCN-master\task a\images\nature_valley_sweet_and_salty.jpg ..\..\JOCN-master\task a\images\garden_veggie straws_zesty ranch.jpg ..\..\JOCN-master\task a\images\sourpatchkids_original_candy.jpg ..\..\JOCN-master\task a\images\garden_veggie straws_sea salt.jpg ..\..\JOCN-master\task a\images\fiber one_chocolate fudge_ brownie.jpg,,,,1.0
12.0,1.13111469144,..\..\JOCN-master\task a\images\kettle_salt_vinegar.jpg,2.37427811197,1.0,0.0,7,12.0,0.75,3.41287408379,7,..\..\JOCN-master\task a\images\kitkat_crisp wafers_milk choc.jpg ..\..\JOCN-master\task a\images\sun chips_french onion_chips.jpg ..\..\JOCN-master\task a\images\kettle_salt_vinegar.jpg ..\..\JOCN-master\task a\images\snickers_milk chocolate_candy bar.jpg ..\..\JOCN-master\task a\images\baked_cheetos_crunchy.jpg ..\..\JOCN-master\task a\images\special_k_cracker_chips.jpg ..\..\JOCN-master\task a\images\pringles_the original_potato crisps.jpg ..\..\JOCN-master\task a\images\skittles_original_candy.jpg ..\..\JOCN-master\task a\images\nabisco_nutter butter_bites.jpg ..\..\JOCN-master\task a\images\swedish fish_original_candy.jpg ..\..\JOCN-master\task a\images\kettle_salt_pepper.jpg ..\..\JOCN-master\task a\images\kettle_original.jpg,,,,1.0
1.0,1.75419124565,$1.25,2.78154284961,2.0,0.0,4,2.0,1.0,2.86491995089,3,1.0 1.25,,,,6.0
1.75,6.04131491855e-06,$1.75,9.43953637034e-06,1.0,1.0,n/a,6.0,1.75,,n/a,1.75 1.5,,,,3.0
12.0,1.29885966703,..\..\JOCN-master\task a\images\special_k_cracker_chips.jpg,3.5796248882,2.0,0.0,4,12.0,1.75,3.56697554071,7,..\..\JOCN-master\task a\images\austin_peanut_butter.jpg ..\..\JOCN-master\task a\images\kellogg's_rice krispies_orignal.jpg ..\..\JOCN-master\task a\images\skittles_original_candy.jpg ..\..\JOCN-master\task a\images\nature valley_oats and honey_crunchy.jpg ..\..\JOCN-master\task a\images\welch's_mixed fruit_fruit snacks.jpg ..\..\JOCN-master\task a\images\quaker_chewy_chocolate chip.jpg ..\..\JOCN-master\task a\images\grandmas_chocolate chip_cookies.jpg ..\..\JOCN-master\task a\images\planters_salted_cashews.jpg ..\..\JOCN-master\task a\images\nature_valley_sweet_and_salty.jpg ..\..\JOCN-master\task a\images\jacklinks_beef_jerky_original.jpg ..\..\JOCN-master\task a\images\special_k_cracker_chips.jpg ..\..\JOCN-master\task a\images\lance_toasty_with_pb.jpg,,,,5.0
6.0,6.79644290358e-06,..\..\JOCN-master\task a\images\nature_valley_sweet_and_salty.jpg,1.05722574517e-05,1.0,1.0,n/a,6.0,1.5,,n/a,..\..\JOCN-master\task a\images\mini_fudge_stripes.jpg ..\..\JOCN-master\task a\images\kettle_original.jpg ..\..\JOCN-master\task a\images\nature_valley_sweet_and_salty.jpg ..\..\JOCN-master\task a\images\haribo_gold_bears.jpg ..\..\JOCN-master\task a\images\kellogg's_rice krispies_orignal.jpg ..\..\JOCN-master\task a\images\nabisco_nutter butter_cookies and crackers.jpg,,,,3.0
0.75,2.56193785241,$1.75,1.88171400718,1.0,0.0,7,2.0,0.75,3.49031711917,7,1.25 1.75 0.75 1.5,,,,2.0
6.0,6.04125671089e-06,..\..\JOCN-master\task a\images\skittles_original_candy.jpg,1.32153509185e-05,1.0,1.0,n/a,6.0,0.5,,n/a,..\..\JOCN-master\task a\images\kettle_salt_vinegar.jpg ..\..\JOCN-master\task a\images\skittles_original_candy.jpg ..\..\JOCN-master\task a\images\nabisco_nutter butter_bites.jpg ..\..\JOCN-master\task a\images\welch's_mixed fruit_fruit snacks.jpg ..\..\JOCN-master\task a\images\jacklinks_beef_steak.jpg ..\..\JOCN-master\task a\images\wheat_thins.jpg,,,,3.0
12.0,1.38402423775,..\..\JOCN-master\task a\images\grandmas_chocolate chip_cookies.jpg,2.63206713996,2.0,0.0,7,12.0,1.0,3.06890252628,3,..\..\JOCN-master\task a\images\sun chips_original_chips.jpg ..\..\JOCN-master\task a\images\milkyway_orginal_candy.jpg ..\..\JOCN-master\task a\images\grandmas_chocolate chip_cookies.jpg ..\..\JOCN-master\task a\images\austin_peanut butter_cheese cracker.jpg ..\..\JOCN-master\task a\images\swedish fish_original_candy.jpg ..\..\JOCN-master\task a\images\baked_cheetos_crunchy.jpg ..\..\JOCN-master\task a\images\kettle_salt_pepper.jpg ..\..\JOCN-master\task a\images\jacklinks_beef_jerky_original.jpg ..\..\JOCN-master\task a\images\fritos_original_corn chips.jpg ..\..\JOCN-master\task a\images\fiber one_chocolate fudge_ brownie.jpg ..\..\JOCN-master\task a\images\lance_captain_wafers_with_honey_and_pb.JPG ..\..\JOCN-master\task a\images\teddy_grahams_chocolate.jpg,,,,5.0
1.5,2.1223279995,$1.75,1.59881243162,2.0,0.0,7,3.0,1.5,3.3060038808,7,0.5 1.75 1.5 1.0,,,,6.0
6.0,1.26135565998,..\..\JOCN-master\task a\images\lays_classic_potato chips.jpg,1.72884912876,1.0,0.0,6,6.0,0.75,3.73663258745,7,..\..\JOCN-master\task a\images\chex mix_original_traditional.jpg ..\..\JOCN-master\task a\images\nabisco_nutter butter_cookies and crackers.jpg ..\..\JOCN-master\task a\images\lays_classic_potato chips.jpg ..\..\JOCN-master\task a\images\nestle_butterfinger_bar.jpg ..\..\JOCN-master\task a\images\austin_peanut_butter.jpg ..\..\JOCN-master\task a\images\doritos_cool ranch_chips.jpg,,,,2.0
0.5,6.04125671089e-06,$0.75,3.77581454813e-06,2.0,1.0,n/a,12.0,0.5,,n/a,1.5 1.75 1.25 0.5 0.75 1.0,,,,8.0
1.5,2.34342104418,$1.75,1.88198511046,2.0,0.0,4,2.0,1.5,2.17807824007,7,1.0 0.75 1.75 0.5 1.25 1.5,,,,6.0
2.0,1.52260635234,..\..\JOCN-master\task a\images\swedish fish_original_candy.jpg,3.87631572888,1.0,0.0,1,2.0,0.5,3.50235176447,7,..\..\JOCN-master\task a\images\cheez itz_original.jpg ..\..\JOCN-master\task a\images\swedish fish_original_candy.jpg,,,,1.0
0.75,1.84128110274,$1.25,2.86451140803,1.0,0.0,4,2.0,0.75,4.45603992091,2,0.75 1.25 1.0 0.5,,,,2.0
12.0,5.6637218222e-06,..\..\JOCN-master\task a\images\snickers_milk chocolate_candy bar.jpg,1.51032581925e-05,2.0,1.0,n/a,12.0,0.5,,n/a,..\..\JOCN-master\task a\images\lays_classic_potato chips.jpg ..\..\JOCN-master\task a\images\sunchips_harvest cheddar_chips.jpg ..\..\JOCN-master\task a\images\keebler_fudge_stripes.jpg ..\..\JOCN-master\task a\images\sun chips_original_chips.jpg ..\..\JOCN-master\task a\images\planters_salted_cashews.jpg ..\..\JOCN-master\task a\images\baked_ruffles_cheddar &sour.JPG ..\..\JOCN-master\task a\images\planters_salted_peanuts.jpg ..\..\JOCN-master\task a\images\jacklinks_beef_jerky_original.jpg ..\..\JOCN-master\task a\images\welch's_mixed fruit_fruit snacks.jpg ..\..\JOCN-master\task a\images\teddy_grahams_chocolate.jpg ..\..\JOCN-master\task a\images\pirates booty_aged white cheddar_ corn puffs.jpg ..\..\JOCN-master\task a\images\snickers_milk chocolate_candy bar.jpg,,,,7.0
0.5,2.25836332905,$1.75,0.882701381983,2.0,0.0,4,2.0,0.5,4.2925959726,7,1.25 0.5 1.75 0.75,,,,6.0
1.25,n/a,1.25,n/a,1.0,1.0,6,2.0,1.25,n/a,7,..\..\JOCN-master\task a\images\planters_salted_peanuts.jpg ..\..\JOCN-master\task a\images\nabisco_chips ahhoy_mini.jpg,,,,1.0
12.0,6.41884980723e-06,..\..\JOCN-master\task a\images\nature valley_oats and honey_crunchy.jpg,9.81712946668e-06,1.0,1.0,n/a,12.0,1.0,,n/a,..\..\JOCN-master\task a\images\pringles_the original_potato crisps.jpg ..\..\JOCN-master\task a\images\m&m's_peanut_butter.jpg ..\..\JOCN-master\task a\images\m&m's_milk_chocholate.jpg ..\..\JOCN-master\task a\images\baked_lays_classic.jpg ..\..\JOCN-master\task a\images\oreo_thin_crisps.jpg ..\..\JOCN-master\task a\images\lance_toast_cheese_with_pb.JPG ..\..\JOCN-master\task a\images\nature valley_oats and honey_crunchy.jpg ..\..\JOCN-master\task a\images\milkyway_orginal_candy.jpg ..\..\JOCN-master\task a\images\quaker_chewy_peanut butter choc chip.jpg ..\..\JOCN-master\task a\images\garden_veggie straws_zesty ranch.jpg ..\..\JOCN-master\task a\images\baked_cheetos_crunchy.jpg ..\..\JOCN-master\task a\images\m&m's_peanut.jpg,,,,4.0
12.0,1.31039892585,..\..\JOCN-master\task a\images\famous_amos_chocolate_chip.jpg,1.65776229528,2.0,0.0,7,12.0,1.25,2.32847977878,7,..\..\JOCN-master\task a\images\sun chips_original_chips.jpg ..\..\JOCN-master\task a\images\austin_vanilla creme_vanilla cookies.jpg ..\..\JOCN-master\task a\images\combos_cheddar cheese_pretzel.jpg ..\..\JOCN-master\task a\images\fiber one_oats and choc_chewy bar.jpg ..\..\JOCN-master\task a\images\welch's_mixed fruit_fruit snacks.jpg ..\..\JOCN-master\task a\images\doritos_nacho cheesier_chips.jpg ..\..\JOCN-master\task a\images\nature valley_oats and honey_crunchy.jpg ..\..\JOCN-master\task a\images\quaker_chewy_chocolate chip.jpg ..\..\JOCN-master\task a\images\famous_amos_chocolate_chip.jpg ..\..\JOCN-master\task a\images\reeses_peanut butter cups_milk choc.jpg ..\..\JOCN-master\task a\images\skittles_sour_candy.jpg ..\..\JOCN-master\task a\images\cheetos_crunchy_chips.jpg,,,,5.0
6.0,1.41659552406,..\..\JOCN-master\task a\images\garden_veggie straws_sea salt.jpg,2.23439220944,2.0,0.0,7,6.0,0.75,2.72189823654,7,..\..\JOCN-master\task a\images\hersey_milk_chocolate.jpg ..\..\JOCN-master\task a\images\baked_cheetos_crunchy.jpg ..\..\JOCN-master\task a\images\jacklinks_beef_steak.jpg ..\..\JOCN-master\task a\images\emerald_natural_almonds.jpg ..\..\JOCN-master\task a\images\sourpatchkids_original_candy.jpg ..\..\JOCN-master\task a\images\garden_veggie straws_sea salt.jpg,,,,6.0
12.0,6.04131491855e-06,..\..\JOCN-master\task a\images\quaker_chewy_chocolate chip.jpg,9.43953637034e-06,1.0,1.0,n/a,12.0,1.25,,n/a,..\..\JOCN-master\task a\images\oreo_thin_crisps.jpg ..\..\JOCN-master\task a\images\quaker_chewy_chocolate chip.jpg ..\..\JOCN-master\task a\images\grandma's_peanut butter_cookies.jpg ..\..\JOCN-master\task a\images\nestle_crunch_bar.jpg ..\..\JOCN-master\task a\images\doritos_nacho cheesier_chips.jpg ..\..\JOCN-master\task a\images\baked_lays_barbeque.jpg ..\..\JOCN-master\task a\images\austin_peanut_butter.jpg ..\..\JOCN-master\task a\images\sun chips_garden salsa_chips.jpg ..\..\JOCN-master\task a\images\barnum's_animal_crackers.jpg ..\..\JOCN-master\task a\images\welch's_mixed fruit_fruit snacks.jpg ..\..\JOCN-master\task a\images\keebler_chips delux_cookies_crackers.jpg ..\..\JOCN-master\task a\images\baked_cheetos_crunchy.jpg,,,,4.0
12.0,1.34229774016,..\..\JOCN-master\task a\images\nabisco_nutter butter_bites.jpg,2.70465410349,2.0,0.0,4,12.0,0.75,4.44786491047,7,..\..\JOCN-master\task a\images\baked_lays_classic.jpg ..\..\JOCN-master\task a\images\quaker_chewy_chocolate chip.jpg ..\..\JOCN-master\task a\images\jacklinks_beef_steak.jpg ..\..\JOCN-master\task a\images\twix_milk chocolate_cookie bars.jpg ..\..\JOCN-master\task a\images\sourpatchkids_original_candy.jpg ..\..\JOCN-master\task a\images\nabisco_nutter butter_bites.jpg ..\..\JOCN-master\task a\images\garden_veggie straws_zesty ranch.jpg ..\..\JOCN-master\task a\images\nature_valley_chewy.jpg ..\..\JOCN-master\task a\images\m&m's_milk_chocholate.jpg ..\..\JOCN-master\task a\images\swedish fish_original_candy.jpg ..\..\JOCN-master\task a\images\nestle_butterfinger_bar.jpg ..\..\JOCN-master\task a\images\sun chips_garden salsa_chips.jpg,,,,5.0
1.5,1.40988288569,$1.75,1.44841278082,2.0,0.0,7,2.0,1.5,3.90080451226,7,1.0 0.75 1.25 1.75 1.5 0.5,,,,6.0
12.0,1.64148514764,..\..\JOCN-master\task a\images\popchips_sea_salt.jpg,2.50074402377,1.0,0.0,7,12.0,0.75,3.66488574207,7,..\..\JOCN-master\task a\images\fiber one_chocolate fudge_ brownie.jpg ..\..\JOCN-master\task a\images\cheez itz_original.jpg ..\..\JOCN-master\task a\images\cheetos_crunchy_chips.jpg ..\..\JOCN-master\task a\images\popchips_sea_salt.jpg ..\..\JOCN-master\task a\images\starburst_orignal_candy.jpg ..\..\JOCN-master\task a\images\m&m's_milk_chocholate.jpg ..\..\JOCN-master\task a\images\sunchips_harvest cheddar_chips.jpg ..\..\JOCN-master\task a\images\pringles_the original_potato crisps.jpg ..\..\JOCN-master\task a\images\emerald_dark_chocolate_almonds.jpg ..\..\JOCN-master\task a\images\kettle_salt_vinegar.jpg ..\..\JOCN-master\task a\images\m&m's_peanut.jpg ..\..\JOCN-master\task a\images\reeses_peanut butter cups_milk choc.jpg,,,,1.0
1.75,1.50572167657,$1.75,1.09873370593,1.0,0.0,7,3.0,1.75,2.27359042334,7,0.5 0.75 1.5 1.0 1.25 1.75,,,,2.0
12.0,1.47355893307,..\..\JOCN-master\task a\images\nabisco_nutter butter_bites.jpg,1.96769226529,2.0,0.0,4,12.0,1.25,2.63011882105,7,..\..\JOCN-master\task a\images\teddy_grahams_chocolate.jpg ..\..\JOCN-master\task a\images\special_k_cracker_chips.jpg ..\..\JOCN-master\task a\images\kitkat_crisp wafers_milk choc.jpg ..\..\JOCN-master\task a\images\belvita_golden_oats.JPG ..\..\JOCN-master\task a\images\quaker_chewy_dark choc chunk.jpg ..\..\JOCN-master\task a\images\nature_valley_chewy.jpg ..\..\JOCN-master\task a\images\nabisco_nutter butter_bites.jpg ..\..\JOCN-master\task a\images\kellogg's_rice krispies_orignal.jpg ..\..\JOCN-master\task a\images\swedish fish_original_candy.jpg ..\..\JOCN-master\task a\images\keebler_cheese_and_peanut_butter.jpg ..\..\JOCN-master\task a\images\austin_peanut butter_cheese cracker.jpg ..\..\JOCN-master\task a\images\snyders_mini_pretzels.jpg,,,,6.0
12.0,1.50355700363,..\..\JOCN-master\task a\images\kitkat_crisp wafers_milk choc.jpg,2.57277934119,1.0,0.0,7,12.0,1.5,2.92902681848,7,..\..\JOCN-master\task a\images\lays_classic_potato chips.jpg ..\..\JOCN-master\task a\images\garden_veggie straws_sea salt.jpg ..\..\JOCN-master\task a\images\starburst_verry berry_candy.jpg ..\..\JOCN-master\task a\images\planters_salted_cashews.jpg ..\..\JOCN-master\task a\images\skittles_original_candy.jpg ..\..\JOCN-master\task a\images\wheat_thins.jpg ..\..\JOCN-master\task a\images\swedish fish_original_candy.jpg ..\..\JOCN-master\task a\images\kitkat_crisp wafers_milk choc.jpg ..\..\JOCN-master\task a\images\emerald_natural_almonds.jpg ..\..\JOCN-master\task a\images\fiber one_chocolate fudge_ brownie.jpg ..\..\JOCN-master\task a\images\hersheys_milk choc_almond.jpg ..\..\JOCN-master\task a\images\m&m's_peanut.jpg,,,,1.0
12.0,2.02185439941,..\..\JOCN-master\task a\images\sunchips_harvest cheddar_chips.jpg,2.35904233326,1.0,0.0,6,12.0,0.5,3.08807043551,7,..\..\JOCN-master\task a\images\planters_salted_peanuts.jpg ..\..\JOCN-master\task a\images\jacklinks_beef_steak.jpg ..\..\JOCN-master\task a\images\keebler_vanilla_sugar_wafers.jpg ..\..\JOCN-master\task a\images\sunchips_harvest cheddar_chips.jpg ..\..\JOCN-master\task a\images\austin_peanut butter_cheese cracker.jpg ..\..\JOCN-master\task a\images\kettle_original.jpg ..\..\JOCN-master\task a\images\wheat_thins.jpg ..\..\JOCN-master\task a\images\doritos_cool ranch_chips.jpg ..\..\JOCN-master\task a\images\kettle_salt_vinegar.jpg ..\..\JOCN-master\task a\images\popchips_sea_salt.jpg ..\..\JOCN-master\task a\images\keebler_chips delux_cookies_crackers.jpg ..\..\JOCN-master\task a\images\oreo_thin_crisps.jpg,,,,2.0
6.0,1.89108330692,..\..\JOCN-master\task a\images\sun chips_garden salsa_chips.jpg,2.22297755239,1.0,0.0,6,6.0,1.0,3.72105774086,7,..\..\JOCN-master\task a\images\keebler_chips delux_cookies_crackers.jpg ..\..\JOCN-master\task a\images\fiber one_oats and choc_chewy bar.jpg ..\..\JOCN-master\task a\images\sunchips_harvest cheddar_chips.jpg ..\..\JOCN-master\task a\images\cheetos_crunchy_chips.jpg ..\..\JOCN-master\task a\images\emerald_natural_almonds.jpg ..\..\JOCN-master\task a\images\sun chips_garden salsa_chips.jpg,,,,1.0
6.0,2.76505274622,..\..\JOCN-master\task a\images\nabisco_chips ahhoy_mini.jpg,1.72365852009,2.0,0.0,4,6.0,1.75,3.40656319179,5,..\..\JOCN-master\task a\images\starburst_favereds_candy.jpg ..\..\JOCN-master\task a\images\grandmas_oatmeal raisin_cookies.jpg ..\..\JOCN-master\task a\images\nabisco_chips ahhoy_mini.jpg ..\..\JOCN-master\task a\images\sun chips_french onion_chips.jpg ..\..\JOCN-master\task a\images\belvita_golden_oats.JPG ..\..\JOCN-master\task a\images\nestle_crunch_bar.jpg,,,,6.0
1.5,6.04125671089e-06,$1.75,4.15334943682e-06,1.0,1.0,n/a,12.0,1.5,,n/a,1.75 1.5 1.25,,,,4.0
1.0,5.28612872586e-06,$0.75,8.3067570813e-06,1.0,1.0,n/a,2.0,1.0,,n/a,0.5 0.75 1.0,,,,4.0
2.0,1.63324821391,..\..\JOCN-master\task a\images\haribo_gold_bears.jpg,1.16894492868,2.0,0.0,7,2.0,0.75,3.07391453901,1,..\..\JOCN-master\task a\images\haribo_gold_bears.jpg ..\..\JOCN-master\task a\images\pepperidge farms-goldish-cheddar.jpg,,,,5.0
3.0,1.97713481577,..\..\JOCN-master\task a\images\hersheys_milk choc_almond.jpg,1.7641911059,2.0,0.0,7,3.0,1.25,2.83140471153,7,..\..\JOCN-master\task a\images\emerald_natural_almonds.jpg ..\..\JOCN-master\task a\images\hersheys_milk choc_almond.jpg ..\..\JOCN-master\task a\images\nature_valley_chewy.jpg,,,,5.0
1.5,6.04131491855e-06,$0.5,5.6637218222e-06,2.0,1.0,n/a,3.0,1.5,,n/a,1.5 1.75 0.5,,,,8.0
12.0,1.66288154107,..\..\JOCN-master\task a\images\garden_veggie straws_sea salt.jpg,3.1398825043,1.0,0.0,7,12.0,1.0,3.32851753692,7,..\..\JOCN-master\task a\images\planters_salted_peanuts.jpg ..\..\JOCN-master\task a\images\garden_veggie straws_zesty ranch.jpg ..\..\JOCN-master\task a\images\garden_veggie straws_sea salt.jpg ..\..\JOCN-master\task a\images\lance_toast_cheese_with_pb.JPG ..\..\JOCN-master\task a\images\fiber one_oats and choc_chewy bar.jpg ..\..\JOCN-master\task a\images\hersey_milk_chocolate.jpg ..\..\JOCN-master\task a\images\nabisco_nutter butter_cookies and crackers.jpg ..\..\JOCN-master\task a\images\m&m's_peanut.jpg ..\..\JOCN-master\task a\images\nabisco_chips ahhoy_mini.jpg ..\..\JOCN-master\task a\images\planters_salted_cashews.jpg ..\..\JOCN-master\task a\images\wheat_thins.jpg ..\..\JOCN-master\task a\images\cheez itz_original.jpg,,,,1.0
1.25,1.38249390112,$1.75,1.38262794242,1.0,0.0,7,2.0,1.25,2.63662227947,7,1.25 1.75 0.75,,,,2.0
1.25,1.95988086553,$1.75,1.34883555846,1.0,0.0,7,3.0,1.25,3.26013607276,7,0.5 1.25 0.75 1.75 1.0 1.5,,,,2.0
6.0,1.89222700032,..\..\JOCN-master\task a\images\pirates booty_aged white cheddar_ corn puffs.jpg,2.4123133758,1.0,0.0,7,6.0,1.0,2.3894266694,7,..\..\JOCN-master\task a\images\baked_ruffles_cheddar &sour.JPG ..\..\JOCN-master\task a\images\pirates booty_aged white cheddar_ corn puffs.jpg ..\..\JOCN-master\task a\images\pepperidge farms-goldish-cheddar.jpg ..\..\JOCN-master\task a\images\jacklinks_beef_steak.jpg ..\..\JOCN-master\task a\images\nestle_babyruth_bar.jpg ..\..\JOCN-master\task a\images\jacklinks_beef_jerky_original.jpg,,,,2.0
3.0,2.49542503746,..\..\JOCN-master\task a\images\keebler_cheese_and_peanut_butter.jpg,2.56800973555,2.0,0.0,4,3.0,1.0,3.95918800408,3,..\..\JOCN-master\task a\images\grandma's_peanut butter_cookies.jpg ..\..\JOCN-master\task a\images\chex mix_original_traditional.jpg ..\..\JOCN-master\task a\images\keebler_cheese_and_peanut_butter.jpg,,,,6.0
1.5,2.55344491865,$1.75,1.74843841855,1.0,0.0,5,6.0,1.5,4.41120970593,7,1.75 1.5 0.5 1.0 1.25 0.75,,,,1.0
0.5,6.41884980723e-06,$1.0,4.15340764448e-06,1.0,1.0,n/a,3.0,0.5,,n/a,1.0 1.25 0.5 1.75,,,,3.0
1.75,6.04131491855e-06,$0.5,4.53094253317e-06,1.0,1.0,n/a,12.0,1.75,,n/a,1.5 1.75 0.75 1.0 0.5 1.25,,,,4.0
1.75,1.9557489946,$1.75,0.91601386026,1.0,0.0,7,6.0,1.75,3.4593135498,7,1.75 1.0 1.25,,,,1.0
0.75,6.04131491855e-06,$1.0,3.77581454813e-06,2.0,1.0,n/a,2.0,0.75,,n/a,0.5 0.75 1.0,,,,7.0
1.0,n/a,1.0,n/a,1.0,1.0,3,6.0,1.0,n/a,2,..\..\JOCN-master\task a\images\sun chips_original_chips.jpg ..\..\JOCN-master\task a\images\garden_veggie straws_zesty ranch.jpg ..\..\JOCN-master\task a\images\baked_cheetos_crunchy.jpg ..\..\JOCN-master\task a\images\nature valley_oats and honey_crunchy.jpg ..\..\JOCN-master\task a\images\pringles_the original_potato crisps.jpg ..\..\JOCN-master\task a\images\keebler_chips delux_cookies_crackers.jpg,,,,1.0
0.5,6.04131491855e-06,$0.75,5.28612872586e-06,1.0,1.0,n/a,2.0,0.5,,n/a,0.75 1.0 0.5,,,,3.0
12.0,5.6637218222e-06,..\..\JOCN-master\task a\images\baked_lays_barbeque.jpg,9.06194327399e-06,1.0,1.0,n/a,12.0,1.25,,n/a,..\..\JOCN-master\task a\images\m&m's_peanut_butter.jpg ..\..\JOCN-master\task a\images\keebler_cheese_and_peanut_butter.jpg ..\..\JOCN-master\task a\images\nestle_butterfinger_cups.jpg ..\..\JOCN-master\task a\images\garden_veggie straws_sea salt.jpg ..\..\JOCN-master\task a\images\baked_lays_barbeque.jpg ..\..\JOCN-master\task a\images\skittles_original_candy.jpg ..\..\JOCN-master\task a\images\wheat_thins.jpg ..\..\JOCN-master\task a\images\sun chips_garden salsa_chips.jpg ..\..\JOCN-master\task a\images\keebler_vanilla_sugar_wafers.jpg ..\..\JOCN-master\task a\images\m&m's_milk_chocholate.jpg ..\..\JOCN-master\task a\images\hersheys_milk choc_almond.jpg ..\..\JOCN-master\task a\images\welch's_mixed fruit_fruit snacks.jpg,,,,3.0
12.0,1.29211682209,..\..\JOCN-master\task a\images\nature_valley_sweet_and_salty.jpg,2.63815110573,1.0,0.0,7,12.0,0.75,2.64504687104,7,..\..\JOCN-master\task a\images\grandmas_oatmeal raisin_cookies.jpg ..\..\JOCN-master\task a\images\nature_valley_sweet_and_salty.jpg ..\..\JOCN-master\task a\images\nuture valley_crunchy_bar.jpg ..\..\JOCN-master\task a\images\nestle_butterfinger_bar.jpg ..\..\JOCN-master\task a\images\haribo_gold_bears.jpg ..\..\JOCN-master\task a\images\nestle_butterfinger_cups.jpg ..\..\JOCN-master\task a\images\planters_salted_cashews.jpg ..\..\JOCN-master\task a\images\quaker_chewy_peanut butter choc chip.jpg ..\..\JOCN-master\task a\images\starburst_orignal_candy.jpg ..\..\JOCN-master\task a\images\nabisco_chips ahhoy_mini.jpg ..\..\JOCN-master\task a\images\keebler_fudge_stripes.jpg ..\..\JOCN-master\task a\images\baked_lays_classic.jpg,,,,2.0
1.75,1.55418950872,$1.75,1.39883372723,1.0,0.0,7,2.0,1.75,2.19206195953,7,1.5 0.75 1.75 1.25 1.0 0.5,,,,1.0
12.0,1.6361876835,..\..\JOCN-master\task a\images\garden_veggie straws_sea salt.jpg,2.68899807695,2.0,0.0,7,12.0,1.0,2.44606309303,7,..\..\JOCN-master\task a\images\austin_peanut_butter.jpg ..\..\JOCN-master\task a\images\famous_amos_chocolate_chip.jpg ..\..\JOCN-master\task a\images\lance_toast_cheese_with_pb.JPG ..\..\JOCN-master\task a\images\keebler_chips delux_cookies_crackers.jpg ..\..\JOCN-master\task a\images\garden_veggie straws_sea salt.jpg ..\..\JOCN-master\task a\images\grandmas_chocolate brownie_cookie.jpg ..\..\JOCN-master\task a\images\m&m's_peanut.jpg ..\..\JOCN-master\task a\images\pepperidge farms-goldish-cheddar.jpg ..\..\JOCN-master\task a\images\pirates booty_aged white cheddar_ corn puffs.jpg ..\..\JOCN-master\task a\images\keebler_chips_deluxe.jpg ..\..\JOCN-master\task a\images\m&m's_milk_chocholate.jpg ..\..\JOCN-master\task a\images\doritos_nacho cheesier_chips.jpg,,,,5.0
12.0,2.11845779227,..\..\JOCN-master\task a\images\famous_amos_chocolate_chip.jpg,2.35016200121,2.0,0.0,7,12.0,1.5,2.52963880205,7,..\..\JOCN-master\task a\images\planters_salted_peanuts.jpg ..\..\JOCN-master\task a\images\grandmas_oatmeal raisin_cookies.jpg ..\..\JOCN-master\task a\images\starburst_orignal_candy.jpg ..\..\JOCN-master\task a\images\nestle_babyruth_bar.jpg ..\..\JOCN-master\task a\images\kettle_salt_vinegar.jpg ..\..\JOCN-master\task a\images\kettle_salt_pepper.jpg ..\..\JOCN-master\task a\images\baked_lays_classic.jpg ..\..\JOCN-master\task a\images\famous_amos_chocolate_chip.jpg ..\..\JOCN-master\task a\images\oreo_thin_crisps.jpg ..\..\JOCN-master\task a\images\fiber one_oats and choc_chewy bar.jpg ..\..\JOCN-master\task a\images\emerald_natural_almonds.jpg ..\..\JOCN-master\task a\images\keebler_cheese_and_peanut_butter.jpg,,,,6.0
2.0,1.6290276114,..\..\JOCN-master\task a\images\m&m's_peanut.jpg,1.46164473612,1.0,0.0,7,2.0,0.5,2.81192529778,7,..\..\JOCN-master\task a\images\nabisco_oreo_mini.jpg ..\..\JOCN-master\task a\images\m&m's_peanut.jpg,,,,2.0
6.0,2.29588583758,..\..\JOCN-master\task a\images\kitkat_crisp wafers_milk choc.jpg,1.71450821753,2.0,0.0,6,6.0,1.25,2.56149117387,7,..\..\JOCN-master\task a\images\lance_toasty_with_pb.jpg ..\..\JOCN-master\task a\images\doritos_nacho cheesier_chips.jpg ..\..\JOCN-master\task a\images\planters_salted_cashews.jpg ..\..\JOCN-master\task a\images\pringles_cheddar_potato crisps.jpg ..\..\JOCN-master\task a\images\skittles_sour_candy.jpg ..\..\JOCN-master\task a\images\kitkat_crisp wafers_milk choc.jpg,,,,6.0
3.0,6.04131491855e-06,..\..\JOCN-master\task a\images\doritos_cool ranch_chips.jpg,9.43953637034e-06,2.0,1.0,n/a,3.0,1.75,,n/a,..\..\JOCN-master\task a\images\mini_fudge_stripes.jpg ..\..\JOCN-master\task a\images\doritos_cool ranch_chips.jpg ..\..\JOCN-master\task a\images\combos_cheddar cheese_pretzel.jpg,,,,7.0
1.0,2.66988793766,$1.5,2.0648344665,2.0,0.0,4,3.0,1.0,3.39710742602,5,1.5 1.0,,,,6.0
0.5,6.04131491855e-06,$1.0,4.15340764448e-06,1.0,1.0,n/a,12.0,0.5,,n/a,0.5 0.75 1.75 1.0,,,,3.0
2.0,1.91535611387,..\..\JOCN-master\task a\images\pringles_cheddar_potato crisps.jpg,1.40085491934,2.0,0.0,7,2.0,0.5,2.78713331674,7,..\..\JOCN-master\task a\images\barnum's_animal_crackers.jpg ..\..\JOCN-master\task a\images\pringles_cheddar_potato crisps.jpg,,,,5.0
3.0,6.41884980723e-06,..\..\JOCN-master\task a\images\cheetos_crunchy_chips.jpg,1.09499087557e-05,2.0,1.0,n/a,3.0,0.5,,n/a,..\..\JOCN-master\task a\images\keebler_chips delux_cookies_crackers.jpg ..\..\JOCN-master\task a\images\cheetos_crunchy_chips.jpg ..\..\JOCN-master\task a\images\sourpatchkids_original_candy.jpg,,,,7.0
12.0,3.42445563176,..\..\JOCN-master\task a\images\grandmas_chocolate brownie_cookie.jpg,1.81509660225,2.0,0.0,4,12.0,1.25,4.27895132115,3,..\..\JOCN-master\task a\images\emerald_natural_almonds.jpg ..\..\JOCN-master\task a\images\teddy_grahams_chocolate.jpg ..\..\JOCN-master\task a\images\twix_milk chocolate_cookie bars.jpg ..\..\JOCN-master\task a\images\doritos_cool ranch_chips.jpg ..\..\JOCN-master\task a\images\grandmas_chocolate chip_cookies.jpg ..\..\JOCN-master\task a\images\keebler_fudge_stripes.jpg ..\..\JOCN-master\task a\images\nature valley_oats and honey_crunchy.jpg ..\..\JOCN-master\task a\images\grandmas_chocolate brownie_cookie.jpg ..\..\JOCN-master\task a\images\baked_lays_barbeque.jpg ..\..\JOCN-master\task a\images\nestle_butterfinger_cups.jpg ..\..\JOCN-master\task a\images\kettle_salt_pepper.jpg ..\..\JOCN-master\task a\images\nestle_crunch_bar.jpg,,,,6.0
1.75,1.72933281027,$1.75,0.549532799923,2.0,0.0,4,2.0,1.75,2.5902537987,6,0.75 1.0 0.5 1.75,,,,6.0
6.0,1.24879315612,..\..\JOCN-master\task a\images\kellogg's_rice krispies_orignal.jpg,2.12666225398,2.0,0.0,7,6.0,1.0,4.32364824991,3,..\..\JOCN-master\task a\images\planters_salted_peanuts.jpg ..\..\JOCN-master\task a\images\famous_amos_chocolate_chip.jpg ..\..\JOCN-master\task a\images\emerald_dark_chocolate_almonds.jpg ..\..\JOCN-master\task a\images\haribo_gold_bears.jpg ..\..\JOCN-master\task a\images\kellogg's_rice krispies_orignal.jpg ..\..\JOCN-master\task a\images\austin_cheddar cheese_cheese cracker.jpg,,,,5.0
6.0,1.12492575811,..\..\JOCN-master\task a\images\pringles_the original_potato crisps.jpg,1.14248894725,2.0,0.0,7,6.0,1.25,2.86506456451,7,..\..\JOCN-master\task a\images\baked_cheetos_crunchy.jpg ..\..\JOCN-master\task a\images\nature_valley_sweet_and_salty.jpg ..\..\JOCN-master\task a\images\starburst_verry berry_candy.jpg ..\..\JOCN-master\task a\images\quaker_chewy_peanut butter choc chip.jpg ..\..\JOCN-master\task a\images\fritos_original_corn chips.jpg ..\..\JOCN-master\task a\images\pringles_the original_potato crisps.jpg,,,,5.0
1.25,2.03679566475,$1.75,1.11571277701,1.0,0.0,7,3.0,1.25,2.45649264072,7,0.5 0.75 1.0 1.75 1.25 1.5,,,,2.0
6.0,1.63518898125,..\..\JOCN-master\task a\images\nabisco_oreo_mini.jpg,1.18091765064,1.0,0.0,7,6.0,0.5,2.20233103522,7,..\..\JOCN-master\task a\images\nabisco_oreo_mini.jpg ..\..\JOCN-master\task a\images\keebler_chips delux_cookies_crackers.jpg ..\..\JOCN-master\task a\images\nature_valley_chewy.jpg ..\..\JOCN-master\task a\images\keebler_cheese_and_peanut_butter.jpg ..\..\JOCN-master\task a\images\pringles_the original_potato crisps.jpg ..\..\JOCN-master\task a\images\kettle_salt_pepper.jpg,,,,2.0
1.75,5.6637218222e-06,$0.75,3.77581454813e-06,2.0,1.0,n/a,6.0,1.75,,n/a,1.75 0.5 1.25 0.75 1.0 1.5,,,,7.0
6.0,2.34383336286,..\..\JOCN-master\task a\images\kettle_original.jpg,1.61200662883,1.0,0.0,7,6.0,1.25,2.58416303655,7,..\..\JOCN-master\task a\images\snickers_milk chocolate_candy bar.jpg ..\..\JOCN-master\task a\images\m&m's_milk_chocholate.jpg ..\..\JOCN-master\task a\images\baked_cheetos_crunchy.jpg ..\..\JOCN-master\task a\images\famous_amos_chocolate_chip.jpg ..\..\JOCN-master\task a\images\planters_salted_peanuts.jpg ..\..\JOCN-master\task a\images\kettle_original.jpg,,,,1.0
1.75,5.6637218222e-06,$1.25,4.15340764448e-06,1.0,1.0,n/a,6.0,1.75,,n/a,1.25 0.5 1.75 1.5,,,,4.0
1.5,1.61664332583,$1.75,1.63198520482,2.0,0.0,4,3.0,1.5,2.88417357107,7,1.75 1.25 1.0 0.5 0.75 1.5,,,,6.0
1.0,6.41890801489e-06,$1.25,7.17403599992e-06,2.0,1.0,n/a,6.0,1.0,,n/a,1.25 0.75 1.75 1.0,,,,8.0
0.5,5.6637218222e-06,$0.5,4.15340764448e-06,2.0,1.0,n/a,2.0,0.5,,n/a,0.75 0.5,,,,7.0
1.25,1.47826774808,$1.75,1.66540831444,1.0,0.0,7,2.0,1.25,3.59883055557,7,1.5 1.75 0.5 1.0 0.75 1.25,,,,2.0
3.0,6.41884980723e-06,..\..\JOCN-master\task a\images\lance_toasty_with_pb.jpg,9.43953637034e-06,1.0,1.0,n/a,3.0,1.5,,n/a,..\..\JOCN-master\task a\images\nabisco_oreo_mini.jpg ..\..\JOCN-master\task a\images\lance_toasty_with_pb.jpg ..\..\JOCN-master\task a\images\m&m's_peanut_butter.jpg,,,,3.0
2.0,1.81790165295,..\..\JOCN-master\task a\images\fritos_original_corn chips.jpg,0.792752480018,2.0,0.0,7,2.0,0.5,3.88325227296,3,..\..\JOCN-master\task a\images\fritos_original_corn chips.jpg ..\..\JOCN-master\task a\images\starburst_favereds_candy.jpg,,,,6.0
6.0,n/a,..\..\JOCN-master\task a\images\nabisco_nutter butter_cookies and crackers.jpg,n/a,1.0,1.0,5,6.0,1.75,n/a,3,..\..\JOCN-master\task a\images\sun chips_garden salsa_chips.jpg ..\..\JOCN-master\task a\images\starburst_orignal_candy.jpg ..\..\JOCN-master\task a\images\lays_classic_potato chips.jpg ..\..\JOCN-master\task a\images\swedish fish_original_candy.jpg ..\..\JOCN-master\task a\images\snyders_mini_pretzels.jpg ..\..\JOCN-master\task a\images\nabisco_nutter butter_cookies and crackers.jpg,,,,2.0
0.75,7.17409420758e-06,$0.75,4.15334943682e-06,1.0,1.0,n/a,6.0,0.75,,n/a,0.75 0.5,,,,3.0
1.0,5.2860705182e-06,$1.0,3.77581454813e-06,1.0,1.0,n/a,6.0,1.0,,n/a,0.75 1.0,,,,3.0
1.5,9.81707125902e-06,$1.25,4.15334943682e-06,2.0,1.0,n/a,12.0,1.5,,n/a,0.75 1.25 1.5,,,,7.0
1.0,4.38169305143,0.5,n/a,2.0,1.0,2,3.0,1.0,n/a,4,1.0 0.5 0.75,,,,5.0
3.0,6.04125671089e-06,..\..\JOCN-master\task a\images\cheez-it_white_cheddar.JPG,1.01946061477e-05,1.0,1.0,n/a,3.0,1.0,,n/a,..\..\JOCN-master\task a\images\grandmas_vanilla sandwhich creme_cookies.jpg ..\..\JOCN-master\task a\images\cheez-it_white_cheddar.JPG ..\..\JOCN-master\task a\images\kitkat_crisp wafers_milk choc.jpg,,,,4.0
12.0,6.04137312621e-06,..\..\JOCN-master\task a\images\lays_classic_potato chips.jpg,1.20826298371e-05,2.0,1.0,n/a,12.0,1.25,,n/a,..\..\JOCN-master\task a\images\baked_cheetos_crunchy.jpg ..\..\JOCN-master\task a\images\popchips_barbeque.jpg ..\..\JOCN-master\task a\images\pringles_cheddar_potato crisps.jpg ..\..\JOCN-master\task a\images\emerald_natural_almonds.jpg ..\..\JOCN-master\task a\images\kars_raisin_almond_cashew_mix.jpg ..\..\JOCN-master\task a\images\quaker_chewy_peanut butter choc chip.jpg ..\..\JOCN-master\task a\images\planters_honey roasted_peanuts.jpg ..\..\JOCN-master\task a\images\nestle_crunch_bar.jpg ..\..\JOCN-master\task a\images\cliff_chocolate chip_bar.jpg ..\..\JOCN-master\task a\images\grandmas_oatmeal raisin_cookies.jpg ..\..\JOCN-master\task a\images\nature valley_oats and honey_crunchy.jpg ..\..\JOCN-master\task a\images\lays_classic_potato chips.jpg,,,,7.0
1.75,1.44922004943,$1.75,2.29787984386,1.0,1.0,5,2.0,1.75,n/a,5,1.75 1.0 1.5 1.25 0.5 0.75,,,,2.0
6.0,2.11042777298,..\..\JOCN-master\task a\images\krave_jerky_black_cherry_bbq.jpg,2.01614046318,2.0,1.0,5,6.0,1.0,n/a,6,..\..\JOCN-master\task a\images\nature_valley_granola_cups_almond_butter.jpg ..\..\JOCN-master\task a\images\austin_peanut_butter.jpg ..\..\JOCN-master\task a\images\krave_jerky_black_cherry_bbq.jpg ..\..\JOCN-master\task a\images\grandma's_peanut butter_cookies.jpg ..\..\JOCN-master\task a\images\nestle_crunch_bar.jpg ..\..\JOCN-master\task a\images\austin_peanut butter_cheese cracker.jpg,,,,6.0
6.0,1.50906364771,..\..\JOCN-master\task a\images\nature valley_oats and honey_crunchy.jpg,n/a,1.0,1.0,3,6.0,1.0,n/a,3,..\..\JOCN-master\task a\images\fiber one_chocolate fudge_ brownie.jpg ..\..\JOCN-master\task a\images\planters_honey roasted_peanuts.jpg ..\..\JOCN-master\task a\images\stonyfield_fruit snacks.jpg ..\..\JOCN-master\task a\images\nabisco_nutter butter_bites.jpg ..\..\JOCN-master\task a\images\nature_valley_granola_cups_peanut_butter.jpg ..\..\JOCN-master\task a\images\nature valley_oats and honey_crunchy.jpg,,,,2.0
1.75,1.59239921509,$1.75,1.96526743891,1.0,0.0,7,2.0,1.75,3.23376391432,7,0.75 1.25 1.0 1.75 1.5 0.5,,,,2.0
1.75,6.41890801489e-06,$1.0,3.77581454813e-06,2.0,1.0,n/a,12.0,1.75,,n/a,1.75 1.0,,,,8.0
0.5,5.6637218222e-06,$1.5,3.77581454813e-06,2.0,1.0,n/a,6.0,0.5,,n/a,0.5 1.75 1.0 1.5,,,,7.0
12.0,5.2860705182e-06,..\..\JOCN-master\task a\images\grandmas_chocolate chip_cookies.jpg,1.20826298371e-05,2.0,1.0,n/a,12.0,1.5,,n/a,..\..\JOCN-master\task a\images\grandma's_peanut butter_cookies.jpg ..\..\JOCN-master\task a\images\lance_van-o_cookies.jpg ..\..\JOCN-master\task a\images\nestle_butterfinger_bar.jpg ..\..\JOCN-master\task a\images\sourpatch_watermelon_candy.jpg ..\..\JOCN-master\task a\images\nestle_babyruth_bar.jpg ..\..\JOCN-master\task a\images\nabisco_teddy graham_honey.jpg ..\..\JOCN-master\task a\images\belvita_banana_bread.jpg ..\..\JOCN-master\task a\images\kars_mango pinapple_trail mix.jpg ..\..\JOCN-master\task a\images\wheat_thins.jpg ..\..\JOCN-master\task a\images\kettle_bbq.jpg ..\..\JOCN-master\task a\images\grandmas_chocolate chip_cookies.jpg ..\..\JOCN-master\task a\images\poptarts_strawberry_frosted.jpg,,,,7.0
2.0,1.93602528586,..\..\JOCN-master\task a\images\jacklinks_small_batch.jpg,2.93793433637,2.0,0.0,2,2.0,0.5,3.49072301888,7,..\..\JOCN-master\task a\images\jacklinks_small_batch.jpg ..\..\JOCN-master\task a\images\pepperidge farms-goldish-cheddar.jpg,,,,5.0
12.0,1.18943286163,..\..\JOCN-master\task a\images\krave_jerky_original.jpg,2.06419371127,1.0,0.0,7,12.0,0.5,2.4267834198,7,..\..\JOCN-master\task a\images\quaker_chewy_dark choc chunk.jpg ..\..\JOCN-master\task a\images\skittles_wild berry_candy.jpg ..\..\JOCN-master\task a\images\annie's_chocolate_chip_bunny_grahams.jpg ..\..\JOCN-master\task a\images\eatrageous_wasabi_ranch.jpg ..\..\JOCN-master\task a\images\lance_toasty_with_pb.jpg ..\..\JOCN-master\task a\images\keebler_fudge_stripes.jpg ..\..\JOCN-master\task a\images\welch's_tropical_fruits.jpg ..\..\JOCN-master\task a\images\basils_duplex_sandwich_cremes.jpg ..\..\JOCN-master\task a\images\sourpatch_watermelon_candy.jpg ..\..\JOCN-master\task a\images\fritos_original_corn chips.jpg ..\..\JOCN-master\task a\images\skinny_pop_popcorn.jpg ..\..\JOCN-master\task a\images\krave_jerky_original.jpg,,,,2.0
6.0,6.04137312621e-06,..\..\JOCN-master\task a\images\clif_z_bar.jpg,9.06188506633e-06,1.0,1.0,n/a,6.0,0.75,,n/a,..\..\JOCN-master\task a\images\cheetos_crunchy_chips.jpg ..\..\JOCN-master\task a\images\starburst_orignal_candy.jpg ..\..\JOCN-master\task a\images\skittles_original_candy.jpg ..\..\JOCN-master\task a\images\starburst_favereds_candy.jpg ..\..\JOCN-master\task a\images\clif_z_bar.jpg ..\..\JOCN-master\task a\images\special_k_pastry_crisps_blueberry.jpg,,,,3.0
2.0,5.6637218222e-06,..\..\JOCN-master\task a\images\emerald_natural_almonds.jpg,9.06188506633e-06,2.0,1.0,n/a,2.0,1.25,,n/a,..\..\JOCN-master\task a\images\lays_kc masterpiece_barbecue chips.jpg ..\..\JOCN-master\task a\images\emerald_natural_almonds.jpg,,,,8.0
1.0,5.6637218222e-06,$1.25,3.77581454813e-06,1.0,1.0,n/a,12.0,1.0,,n/a,0.5 1.25 1.0 1.5 0.75 1.75,,,,4.0
6.0,6.79644290358e-06,..\..\JOCN-master\task a\images\popchips_barbeque.jpg,1.05722574517e-05,1.0,1.0,n/a,6.0,1.75,,n/a,..\..\JOCN-master\task a\images\nabisco_nutter butter_bites.jpg ..\..\JOCN-master\task a\images\stonyfield_fruit_snacks.jpg ..\..\JOCN-master\task a\images\pirates booty_aged white cheddar_ corn puffs.jpg ..\..\JOCN-master\task a\images\kettle_jalepeno.jpg ..\..\JOCN-master\task a\images\popchips_barbeque.jpg ..\..\JOCN-master\task a\images\doritos_nacho cheesier_chips.jpg,,,,4.0
3.0,5.6637218222e-06,..\..\JOCN-master\task a\images\m&m's_peanut.jpg,1.0194722563e-05,2.0,1.0,n/a,3.0,1.5,,n/a,..\..\JOCN-master\task a\images\m&m's_peanut.jpg ..\..\JOCN-master\task a\images\grandmas_vanilla sandwhich creme_cookies.jpg ..\..\JOCN-master\task a\images\fig_newtons.jpg,,,,7.0
1.75,0.828723885119,$1.75,1.36530678289,2.0,0.0,7,6.0,1.75,2.08139328973,7,1.5 1.25 1.75 1.0 0.75 0.5,,,,5.0
1.0,6.04137312621e-06,$0.75,4.15346585214e-06,2.0,1.0,n/a,6.0,1.0,,n/a,1.5 1.0 0.75 1.75,,,,8.0
1.0,5.28618693352e-06,$0.5,3.77581454813e-06,2.0,1.0,n/a,12.0,1.0,,n/a,0.5 1.0,,,,7.0
